gyro_time_list,gyro_x_list,gyro_y_list,gyro_z_list
0.0,0.1,0.0,0.1
0.007996010638297872,-0.4029663471666316,0.09703365283336846,0.00889904149989467
0.015992021276595745,-0.4108831893827681,0.08911681061723194,0.03264956814830419
0.02398803191489362,-0.4188000315989046,0.08119996840109543,0.056400094796713714
0.03198404255319149,-0.4267168738150411,0.07328312618495893,0.08015062144512324
0.03998005319148936,-0.4346337160311776,0.06536628396882241,0.10390114809353276
0.04797606382978724,-0.4425505582473141,0.057449441752685904,0.1276516747419423
0.05597207446808511,-0.45046740046345063,0.04953259953654939,0.15140220139035182
0.06396808510638298,-0.4583842426795871,0.04161575732041289,0.17515272803876134
0.07196409574468085,-0.46630108489572364,0.03369891510427639,0.19890325468717082
0.07996010638297872,-0.4742179271118601,0.025782072888139884,0.22265378133558034
0.08795611702127659,-0.48213476932799665,0.01786523067200338,0.24640430798398985
0.09595212765957448,-0.4900516115441331,0.00994838845586686,0.2701548346323994
0.10394813829787235,-0.49796845376026966,0.0020315462397303558,0.29390536128080896
0.11194414893617022,0.09685283687943262,-0.1,-0.2
0.11994015957446809,0.07019946808510638,-0.1,-0.2
0.12793617021276596,0.04354609929078014,-0.1,-0.2
0.13593218085106384,0.01689273049645386,-0.1,-0.2
0.1439281914893617,-0.009760638297872326,-0.1,-0.2
0.15192420212765959,-0.03641400709219861,-0.1,-0.2
0.15992021276595744,-0.0630673758865248,-0.1,-0.2
0.16791622340425533,-0.08972074468085109,-0.1,-0.2
0.17591223404255318,-0.11637411347517729,-0.1,-0.2
0.18390824468085107,-0.14302748226950357,-0.1,-0.2
0.19190425531914895,-0.16968085106382982,-0.1,-0.2
0.1999002659574468,-0.19633421985815605,-0.1,-0.2
0.2078962765957447,0.09827611218568663,-0.09827611218568663,0.0017238878143133688
0.21589228723404255,0.09100701160541586,-0.09100701160541586,0.008992988394584147
0.22388829787234044,0.08373791102514505,-0.08373791102514505,0.01626208897485495
0.2318843085106383,0.07646881044487427,-0.07646881044487427,0.02353118955512573
0.23988031914893618,0.06919970986460347,-0.06919970986460347,0.030800290135396535
0.24787632978723403,0.061930609284332694,-0.061930609284332694,0.03806939071566731
0.2558723404255319,0.05466150870406189,-0.05466150870406189,0.045338491295938116
0.2638683510638298,0.04739240812379111,-0.04739240812379111,0.05260759187620889
0.2718643617021277,0.04012330754352028,-0.04012330754352028,0.059876692456479724
0.27986037234042555,0.032854206963249505,-0.032854206963249505,0.0671457930367505
0.2878563829787234,0.02558510638297873,-0.02558510638297873,0.07441489361702128
0.29585239361702126,0.018316005802707938,-0.018316005802707938,0.08168399419729207
0.30384840425531917,0.01104690522243712,-0.01104690522243712,0.08895309477756289
0.31184441489361703,0.0037778046421663436,-0.0037778046421663436,0.09622219535783366
0.3198404255319149,0.0,0.0,0.0
0.3278364361702128,0.0,0.0,0.0
0.33583244680851065,0.0,0.0,-0.010172008842221608
0.3438284574468085,0.0,0.0,-0.020556438242608433
0.35182446808510637,0.0,0.0,-0.030940867642995258
0.3598204787234043,0.0,0.0,-0.041325297043382156
0.36781648936170214,0.0,0.0,-0.051709726443768984
0.3758125,0.0,0.0,-0.062094155844155806
0.3838085106382979,0.0,0.0,-0.0724785852445427
0.39180452127659576,0.0,0.0,-0.08286301464492953
0.3998005319148936,0.0,0.0,-0.09324744404531636
0.4077965425531915,-0.08982712765957487,0.0,-0.010172872340425132
0.4157925531914894,-0.18726911386485845,0.0,0.0
0.42378856382978725,-0.16969546411035766,0.0,0.0
0.4317845744680851,-0.1521218143558569,0.0,0.0
0.43978058510638296,-0.1345481646013561,0.0,0.0
0.44777659574468087,-0.11697451484685521,0.0,0.0
0.45577260638297873,-0.09940086509235443,0.0,0.0
0.4637686170212766,-0.08182721533785366,0.0,0.0
0.4717646276595745,-0.06425356558335274,0.0,0.0
0.47976063829787235,-0.046679915828851976,0.0,0.0
0.4877566489361702,-0.029106266074351184,0.0,0.0
0.49575265957446807,-0.01153261631985042,0.0,0.0
0.5037486702127659,0.08752216312056797,0.012477836879432037,0.08752216312056797
0.5117446808510638,-0.2008094357076781,0.10080943570767809,-0.09838112858464386
0.5197406914893618,-0.20950075161887147,0.10950075161887146,-0.08099849676225708
0.5277367021276596,-0.21819206753006473,0.11819206753006473,-0.06361586493987055
0.5357327127659575,-0.2268833834412581,0.1268833834412581,-0.046233233117483785
0.5437287234042554,-0.2355746993524515,0.1355746993524515,-0.028850601295097006
0.5517247340425532,-0.24426601526364478,0.14426601526364477,-0.011467969472710476
0.5597207446808511,-0.25295733117483815,0.15295733117483815,0.005914662349676289
0.5677167553191489,-0.2616486470860314,0.1616486470860314,0.02329729417206282
0.5757127659574468,-0.2703399629972248,0.17033996299722481,0.040679925994449584
0.5837087765957447,-0.27903127890841817,0.1790312789084182,0.05806255781683636
0.5917047872340425,-0.28772259481961143,0.18772259481961145,0.07544518963922289
0.5997007978723404,-0.2964139107308048,0.19641391073080483,0.09282782146160967
0.6076968085106383,-0.45656028368794527,0.04343971631205473,0.1
0.6156928191489361,-0.9155487122060469,0.10388717805151175,0.2077743561030235
0.6236888297872341,-0.9492161254199329,0.11230403135498324,0.22460806270996647
0.631684840425532,-0.9828835386338189,0.12072088465845474,0.24144176931690947
0.6396808510638298,-1.0165509518477045,0.1291377379619261,0.2582754759238522
0.6476768617021277,-1.0502183650615904,0.1375545912653976,0.2751091825307952
0.6556728723404256,-1.0838857782754763,0.14597144456886907,0.29194288913773814
0.6636688829787234,-1.1175531914893617,0.15438829787234046,0.3087765957446809
0.6716648936170213,-1.1512206047032478,0.16280515117581196,0.3256103023516239
0.6796609042553191,-1.1848880179171333,0.17122200447928332,0.34244400895856664
0.687656914893617,-1.2185554311310192,0.1796388577827548,0.3592777155655096
0.6956529255319149,-1.2522228443449053,0.1880557110862263,0.3761114221724526
0.7036489361702127,-1.2858902575587907,0.19647256438969768,0.39294512877939536
0.7116449468085106,-1.5580526004728157,0.2,0.45161052009456315
0.7196409574468086,-2.3596711798839487,0.2,0.7298355899419743
0.7276369680851064,-2.6504352030947778,0.2,0.8752176015473888
0.7356329787234043,-2.6840169187387852,0.2079915406306076,0.9239746218918228
0.7436289893617022,-2.6647494232248143,0.217625288387593,0.952875865162779
0.751625,-2.6454819277108435,0.22725903614457832,0.9817771084337349
0.7596210106382979,-2.6262144321968726,0.23689278390156374,1.0106783517046911
0.7676170212765958,-2.6069469366829017,0.24652653165854915,1.0395795949756474
0.7756130319148936,-2.5876794411689312,0.25616027941553443,1.0684808382466033
0.7836090425531915,-2.5684119456549603,0.2657940271725199,1.0973820815175597
0.7916050531914893,-2.54914445014099,0.27542777492950515,1.1262833247885156
0.7996010638297872,-2.529876954627019,0.2850615226864906,1.1551845680594717
0.8075970744680852,-2.510609459113048,0.29469527044347604,1.184085811330428
0.815593085106383,-3.6482712765957515,0.4,1.4296542553191502
0.8235890957446809,-4.0,0.37778956490557,1.51480695672962
0.8315851063829788,-4.0,0.35083672005737476,1.53277551996175
0.8395811170212766,-4.0,0.32388387520917994,1.55074408319388
0.8475771276595745,-4.0,0.2969310303609848,1.5687126464260102
0.8555731382978724,-4.0,0.2699781855127896,1.5866812096581402
0.8635691489361702,-4.0,0.24302534066459477,1.6046497728902702
0.8715651595744681,-4.0,0.2160724958163996,1.6226183361224003
0.8795611702127659,-4.0,0.18911965096820477,1.64058689935453
0.8875571808510638,-4.0,0.16216680612000958,1.6585554625866603
0.8955531914893617,-4.0,0.1352139612718144,1.6765240258187903
0.9035492021276595,-4.0,0.10826111642361957,1.6944925890509202
0.9115452127659575,-3.5042405437352246,0.10121158392434984,2.2036347517730497
0.9195412234042554,-3.566431737588653,0.11898049645390078,2.2569414893617026
0.9275372340425532,-3.6286229314420804,0.13674940898345148,2.3102482269503546
0.9355332446808511,-3.6908141252955087,0.15451832151300243,2.3635549645390075
0.943529255319149,-3.753005319148937,0.17228723404255336,2.41686170212766
0.9515252659574468,-3.8151965130023644,0.19005614657210407,2.4701684397163124
0.9595212765957447,-3.8773877068557927,0.207825059101655,2.523475177304965
0.9675172872340426,-3.939578900709221,0.22559397163120595,2.5767819148936177
0.9755132978723404,-4.001770094562648,0.24336288416075663,2.6300886524822698
0.9835093085106383,-4.063961288416077,0.2611317966903076,2.6833953900709226
0.9915053191489361,-4.126152482269504,0.27890070921985827,2.7367021276595747
0.999501329787234,-4.1883436761229325,0.29666962174940925,2.7900088652482276
1.0074973404255319,-5.506291346325764,-0.20503307706061125,3.2050330770606115
1.0154933510638298,-5.539888029679957,-0.2319104237439656,3.2319104237439658
1.0234893617021277,-5.57348471303415,-0.25878777042731993,3.25878777042732
1.0314853723404256,-5.607081396388343,-0.2856651171106742,3.2856651171106743
1.0394813829787235,-5.6406780797425355,-0.31254246379402856,3.3125424637940286
1.0474773936170212,-5.674274763096728,-0.3394198104773821,3.3394198104773825
1.055473404255319,-5.707871446450921,-0.36629715716073646,3.3662971571607367
1.063469414893617,-5.741468129805114,-0.3931745038440908,3.393174503844091
1.071465425531915,-5.7750648131593065,-0.4200518505274451,3.4200518505274453
1.0794614361702128,-5.8086614965134995,-0.4469291972107995,3.4469291972107996
1.0874574468085108,-5.8422581798676925,-0.4738065438941538,3.473806543894154
1.0954534574468084,-5.8758548632218845,-0.5006838905775074,3.5006838905775073
1.1034494680851064,-5.9094515465760775,-0.5275612372608617,3.527561237260862
1.1114454787234043,-5.94304822993027,-0.5544385839442161,3.5544385839442163
1.1194414893617022,-5.976644913284463,-0.5813159306275704,3.5813159306275706
1.1274375,-6.830625000000006,-0.9087500000000018,3.8
1.1354335106382978,-7.390345744680844,-1.0686702127659555,3.8
1.1434295212765957,-7.339261968085108,-1.4214760638297839,3.8
1.1514255319148936,-7.093076090876308,-1.5653443923548502,3.8108907320591414
1.1594215425531915,-6.835577443202307,-1.646659754778219,3.8244432924630365
1.1674175531914894,-6.578078795528306,-1.7279751172015876,3.837995852866931
1.1754135638297873,-6.320580147854305,-1.8092904796249563,3.8515484132708258
1.183409574468085,-6.063081500180312,-1.8906058420483227,3.8651009736747204
1.191405585106383,-5.805582852506311,-1.9719212044716914,3.878653534078615
1.1994015957446809,-5.5480842048323105,-2.05323656689506,3.89220609448251
1.2073976063829788,-4.008670212765942,-2.1,3.9
1.2153936170212767,-1.6921089548749122,-1.8842179097498244,3.7921089548749123
1.2233896276595746,-1.6657484802431608,-1.8314969604863218,3.7657484802431607
1.2313856382978723,-1.6393880056114103,-1.7787760112228206,3.73938800561141
1.2393816489361702,-1.613027530979659,-1.7260550619593178,3.7130275309796588
1.2473776595744681,-1.5866670563479075,-1.673334112695815,3.6866670563479076
1.255373670212766,-1.560306581716156,-1.6206131634323122,3.660306581716156
1.263369680851064,-1.5339461070844047,-1.5678922141688096,3.633946107084405
1.2713656914893616,-1.507585632452654,-1.5151712649053084,3.607585632452654
1.2793617021276595,-1.4812251578209028,-1.4624503156418056,3.581225157820903
1.2873577127659575,-1.4548646831891514,-1.4097293663783028,3.5548646831891513
1.2953537234042554,-1.4285042085574,-1.3570084171148,3.5285042085574
1.3033497340425533,-1.4021437339256486,-1.3042874678512975,3.5021437339256485
1.3113457446808512,-0.4796022201665109,-0.9898011100832554,2.079602220166511
1.3193417553191489,-0.4100716928769658,-0.9550358464384829,2.010071692876966
1.3273377659574468,-0.34054116558741887,-0.9202705827937094,1.940541165587419
1.3353337765957447,-0.27101063829787186,-0.8855053191489359,1.871010638297872
1.3433297872340426,-0.2014801110083248,-0.8507400555041624,1.801480111008325
1.3513257978723405,-0.13194958371877785,-0.8159747918593889,1.731949583718778
1.3593218085106382,-0.06241905642923273,-0.7812095282146163,1.6624190564292327
1.3673178191489361,0.007111470860314273,-0.7464442645698428,1.5928885291396857
1.375313829787234,0.07664199814986128,-0.7116790009250693,1.5233580018501387
1.383309840425532,0.14617252543940829,-0.6769137372802958,1.4538274745605917
1.3913058510638299,0.2157030527289553,-0.6421484736355223,1.3842969472710447
1.3993018617021278,0.2852335800185023,-0.6073832099907488,1.3147664199814977
1.4072978723404255,0.4900709219858149,-0.2900709219858149,0.6351063829787224
1.4152938829787234,0.4106947130883303,-0.19465264345583488,0.4839579303675047
1.4232898936170213,0.42684826993337655,-0.18657586503331175,0.4597275950999352
1.4312859042553192,0.4430018267784228,-0.17849908661078862,0.43549725983236576
1.4392819148936171,0.45915538362346914,-0.17042230818826545,0.41126692456479635
1.4472779255319148,0.47530894046851496,-0.16234552976574254,0.3870365892972276
1.4552739361702127,0.49146249731356123,-0.15426875134321938,0.36280625402965816
1.4632699468085106,0.5076160541586076,-0.14619197292069624,0.3385759187620887
1.4712659574468085,0.5237696110036538,-0.1381151944981731,0.3143455834945193
1.4792619680851065,0.5399231678487001,-0.13003841607564995,0.29011524822694984
1.4872579787234044,0.5560767246937464,-0.1219616376531268,0.26588491295938044
1.495253989361702,0.5722302815387923,-0.11388485923060389,0.24165457769181165
1.50325,0.5883838383838386,-0.10580808080808074,0.21742424242424224
1.5112460106382979,0.6,-0.07504432624113377,0.17504432624113378
1.5192420212765958,0.6,0.0,0.03789893617021087
1.5272380319148937,0.5065475398936171,0.0,-0.10654753989361712
1.5352340425531916,0.5165425531914895,0.0,-0.1165425531914895
1.5432300531914893,0.5265375664893616,0.0,-0.1265375664893616
1.5512260638297872,0.536532579787234,0.0,-0.136532579787234
1.5592220744680851,0.5465275930851063,0.0,-0.14652759308510638
1.567218085106383,0.5565226063829787,0.0,-0.15652260638297874
1.575214095744681,0.5665176196808511,0.0,-0.16651761968085113
1.5832101063829787,0.5765126329787232,0.0,-0.17651263297872322
1.5912061170212766,0.5865076462765956,0.0,-0.1865076462765956
1.5992021276595745,0.596502659574468,0.0,-0.196502659574468
1.6071981382978724,0.39979781806339554,0.0,-0.19979781806339553
1.6151941489361703,0.3916386235345201,0.0,-0.1916386235345201
1.6231901595744682,0.3834794290056447,0.0,-0.18347942900564468
1.631186170212766,0.3753202344767695,0.0,-0.1753202344767695
1.6391821808510638,0.36716103994789406,0.0,-0.16716103994789408
1.6471781914893617,0.3590018454190187,0.0,-0.15900184541901868
1.6551742021276596,0.35084265089014327,0.0,-0.15084265089014326
1.6631702127659576,0.34268345636126785,0.0,-0.14268345636126784
1.6711662234042552,0.33452426183239264,0.0,-0.13452426183239266
1.6791622340425532,0.3263650673035172,0.0,-0.12636506730351724
1.687158244680851,0.31820587277464185,0.0,-0.11820587277464183
1.695154255319149,0.31004667824576637,0.0,-0.11004667824576642
1.703150265957447,0.301887483716891,0.0,-0.101887483716891
1.7111462765957448,0.19888711010121862,0.0,0.10222577979756281
1.7191422872340425,0.19112399297665775,0.0,0.11775201404668453
1.7271382978723404,0.18336087585209665,0.0,0.1332782482958067
1.7351343085106383,0.17559775872753558,0.0,0.14880448254492887
1.7431303191489362,0.1678346416029745,0.0,0.16433071679405103
1.7511263297872341,0.1600715244784134,0.0,0.17985695104317317
1.7591223404255318,0.15230840735385254,0.0,0.19538318529229493
1.7671183510638298,0.14454529022929147,0.0,0.21090941954141706
1.7751143617021277,0.1367821731047304,0.0,0.22643565379053923
1.7831103723404256,0.1290190559801693,0.0,0.2419618880396614
1.7911063829787235,0.12125593885560822,0.0,0.2574881222887836
1.7991023936170214,0.11349282173104713,0.0,0.27301435653790573
1.807098404255319,0.10572970460648627,0.0,0.28854059078702743
1.815094414893617,0.10944148936170459,0.0,0.3
1.823090425531915,-0.0037429599499373967,0.0,0.3037429599499374
1.8310864361702128,-0.00962237953692116,0.0,0.3096223795369212
1.8390824468085107,-0.015501799123904925,0.0,0.3155017991239049
1.8470784574468084,-0.021381218710888526,0.0,0.32138121871088854
1.8550744680851063,-0.02726063829787229,0.0,0.3272606382978723
1.8630704787234043,-0.03314005788485605,0.0,0.33314005788485607
1.8710664893617022,-0.039019477471839814,0.0,0.3390194774718398
1.8790625,-0.04489889705882358,0.0,0.3448988970588236
1.887058510638298,-0.05077831664580734,0.0,0.35077831664580733
1.8950545212765957,-0.056657736232790946,0.0,0.35665773623279096
1.9030505319148936,-0.0625371558197747,0.0,0.36253715581977475
1.9110465425531915,-0.06841657540675847,0.0,0.3684165754067585
1.9190425531914894,-0.07429599499374223,0.0,0.3742959949937422
1.9270385638297873,-0.080175414580726,0.0,0.380175414580726
1.9350345744680852,-0.08605483416770976,0.0,0.3860548341677098
1.943030585106383,-0.09193425375469337,0.0,0.3919342537546934
1.9510265957446808,-0.09781367334167713,0.0,0.39781367334167717
1.9590226063829788,0.09991415297603032,0.0,0.4
1.9670186170212767,0.06954955561540523,0.0,0.4
1.9750146276595746,0.03918495825478014,0.0,0.4
1.9830106382978723,0.008820360894155888,0.0,0.4
1.9910066489361702,-0.02154423646646919,0.0,0.4
1.999002659574468,-0.0519088338270943,0.0,0.4
2.006998670212766,-0.08227343118771938,0.0,0.4
2.0149946808510637,-0.11263802854834362,0.0,0.4
2.022990691489362,-0.14300262590896956,0.0,0.4
2.0309867021276595,-0.17336722326959378,0.0,0.4
2.0389827127659577,-0.2,0.0,0.35086436170211305
2.0469787234042554,-0.19378324468085126,0.006216755319148748,0.2
2.054974734042553,-0.18128947805851114,0.018710521941488877,0.2
2.062970744680851,-0.1687957114361703,0.031204288563829702,0.2
2.070966755319149,-0.15630194481383017,0.043698055186169836,0.2
2.078962765957447,-0.14380817819148936,0.05619182180851066,0.2
2.0869587765957447,-0.13131441156914922,0.06868558843085079,0.2
2.0949547872340424,-0.11882064494680909,0.08117935505319092,0.2
2.1029507978723405,-0.10632687832446827,0.09367312167553174,0.2
2.110946808510638,0.0,0.2,0.24734042553191124
2.1189428191489363,0.013099658771577831,0.20654982938578892,0.3130996587715778
2.126938829787234,0.028186471296667834,0.21409323564833393,0.32818647129666784
2.134934840425532,0.04327328382175867,0.22163664191087934,0.34327328382175865
2.14293085106383,0.058360096346848675,0.22918004817342433,0.3583600963468487
2.1509268617021275,0.07344690887193868,0.23672345443596934,0.37344690887193865
2.1589228723404257,0.08853372139702952,0.24426686069851475,0.3885337213970295
2.1669188829787234,0.10362053392211952,0.25181026696105974,0.4036205339221195
2.1749148936170215,0.11870734644721036,0.25935367322360514,0.41870734644721036
2.182910904255319,0.13379415897230035,0.26689707948615016,0.43379415897230034
2.190906914893617,0.14888097149739035,0.2744404857486952,0.44888097149739037
2.198902925531915,0.1639677840224812,0.2819838920112406,0.4639677840224812
2.2068989361702127,0.1790545965475712,0.2895272982737856,0.4790545965475712
2.214894946808511,0.19414140907266203,0.297070704536331,0.494141409072662
2.2228909574468085,0.2,0.38151595744680633,0.5815159574468063
2.2308869680851062,0.390033415166394,0.295016707583197,0.575083537915985
2.2388829787234044,0.36953082378614244,0.2847654118930712,0.5238270594653561
2.246878989361702,0.34902823240589204,0.274514116202946,0.47257058101473004
2.254875,0.3285256410256405,0.26426282051282024,0.4213141025641012
2.262871010638298,0.30802304964539007,0.254011524822695,0.37005762411347515
2.2708670212765956,0.28752045826513967,0.24376022913256984,0.3188011456628491
2.2788630319148937,0.26701786688488816,0.23350893344244406,0.26754466721222026
2.2868590425531914,0.24651527550463773,0.22325763775231885,0.21628818876159422
2.2948550531914895,0.22601268412438616,0.21300634206219307,0.1650317103109653
2.302851063829787,0.20551009274413576,0.20275504637206787,0.11377523186033928
2.3108470744680853,-0.07694148936170983,0.2,-0.43082446808512953
2.318843085106383,0.038091680612001,0.21088333731771458,-0.8054416686588574
2.3268390957446807,0.10098165192445477,0.22885190054984422,-0.8144259502749222
2.334835106382979,0.163871623236912,0.2468204637819749,-0.8234102318909875
2.3428311170212766,0.22676159454936579,0.26478902701410456,-0.8323945135070523
2.3508271276595747,0.28965156586182306,0.28275759024623515,-0.8413787951231176
2.3588231382978724,0.3525415371742768,0.30072615347836484,-0.8503630767391824
2.36681914893617,0.41543150848673055,0.3186947167104945,-0.8593473583552472
2.374815159574468,0.4783214797991878,0.3366632799426251,-0.8683316399713126
2.382811170212766,0.5412114511116416,0.35463184317475477,-0.8773159215873774
2.390807180851064,0.6041014224240988,0.3726004064068854,-0.8863002032034427
2.3988031914893617,0.6669913937365526,0.3905689696390151,-0.8952844848195075
2.4067992021276594,0.8,0.27429711246200605,-0.9257028875379939
2.4147952127659575,0.5991356382978724,0.1,-1.201728723404255
2.4227912234042552,0.5904443223866792,0.1,-1.2191113552266415
2.4307872340425534,0.5817530064754856,0.1,-1.2364939870490288
2.438783244680851,0.5730616905642923,0.1,-1.2538766188714152
2.446779255319149,0.5643703746530987,0.1,-1.2712592506938025
2.454775265957447,0.5556790587419055,0.1,-1.288641882516189
2.4627712765957446,0.5469877428307124,0.1,-1.3060245143385751
2.4707672872340427,0.5382964269195187,0.1,-1.3234071461609624
2.4787632978723404,0.5296051110083255,0.1,-1.3407897779833489
2.4867593085106385,0.5209137950971319,0.1,-1.3581724098057362
2.4947553191489362,0.5122224791859387,0.1,-1.3755550416281226
2.502751329787234,0.5035311632747456,0.1,-1.3929376734505088
2.510747340425532,0.4,0.13736702127660888,-1.5373670212766088
2.5187433510638297,0.5094867021276599,0.3,-1.70474335106383
2.526739361702128,0.5254787234042562,0.3,-1.712739361702128
2.5347353723404256,0.5414707446808515,0.3,-1.7207353723404257
2.5427313829787233,0.5574627659574468,0.3,-1.7287313829787234
2.5507273936170214,0.5734547872340431,0.3,-1.7367273936170216
2.558723404255319,0.5894468085106385,0.3,-1.7447234042553192
2.566719414893617,0.6054388297872347,0.3,-1.7527194148936174
2.574715425531915,0.6214308510638301,0.3,-1.760715425531915
2.5827114361702126,0.6374228723404255,0.3,-1.7687114361702128
2.5907074468085107,0.6534148936170217,0.3,-1.776707446808511
2.5987034574468084,0.669406914893617,0.3,-1.7847034574468086
2.6066994680851066,0.6853989361702133,0.3,-1.7926994680851067
2.6146954787234042,0.7347739361702142,0.3,-1.7652260638297856
2.6226914893617024,0.6957446808510545,0.14787234042552724,-1.5478723404255272
2.6306875,0.5858173076923067,0.1,-1.4858173076923067
2.6386835106382978,0.555063420621931,0.1,-1.455063420621931
2.646679521276596,0.5243095335515536,0.1,-1.4243095335515537
2.6546755319148936,0.49355564648117806,0.1,-1.393555646481178
2.6626715425531917,0.4628017594108007,0.1,-1.3628017594108006
2.6706675531914894,0.43204787234042513,0.1,-1.332047872340425
2.678663563829787,0.4012939852700495,0.1,-1.3012939852700496
2.6866595744680852,0.37054009819967215,0.1,-1.2705400981996722
2.694655585106383,0.3397862111292966,0.1,-1.2397862111292965
2.702651595744681,0.3090323240589192,0.1,-1.2090323240589191
2.7106476063829787,-0.08238031914894464,-0.09119015957447232,-0.8176196808510554
2.7186436170212764,-0.19435638297872365,-0.005643617021276355,-0.5774255319148945
2.7266396276595746,-0.18636037234042552,-0.013639627659574483,-0.5454414893617021
2.7346356382978723,-0.17836436170212785,-0.021635638297872167,-0.5134574468085114
2.7426316489361704,-0.17036835106382972,-0.029631648936170294,-0.4814734042553188
2.750627659574468,-0.16237234042553203,-0.03762765957446798,-0.44948936170212805
2.758623670212766,-0.1543763297872339,-0.04562367021276611,-0.4175053191489356
2.766619680851064,-0.14638031914893623,-0.05361968085106379,-0.38552127659574487
2.7746156914893616,-0.13838430851063854,-0.061615691489361475,-0.3535372340425541
2.7826117021276597,-0.1303882978723404,-0.0696117021276596,-0.3215531914893616
2.7906077127659574,-0.12239228723404272,-0.07760771276595729,-0.2895691489361709
2.7986037234042556,-0.1143962765957446,-0.08560372340425541,-0.2575851063829784
2.8065997340425533,-0.10640026595744691,-0.0935997340425531,-0.22560106382978767
2.814595744680851,0.0,-0.12978723404254752,0.05957446808509505
2.822591755319149,0.0,-0.1,0.42087161508704096
2.8305877659574468,0.0,-0.1,0.4572171179883941
2.838583776595745,0.0,-0.1,0.4935626208897492
2.8465797872340426,0.0,-0.1,0.5299081237911023
2.8545757978723403,0.0,-0.1,0.5662536266924554
2.8625718085106384,0.0,-0.1,0.6025991295938106
2.870567819148936,0.0,-0.1,0.6389446324951636
2.8785638297872342,0.0,-0.1,0.6752901353965188
2.886559840425532,0.0,-0.1,0.7116356382978719
2.8945558510638296,0.0,-0.1,0.747981141199225
2.9025518617021278,0.0,-0.1,0.7843266441005801
2.9105478723404254,0.07739361702127323,-0.3773936170212733,1.4547872340425465
2.9185438829787236,0.1276839742338479,-0.39307900644153804,1.5
2.9265398936170213,0.1570271325395275,-0.38574321686511814,1.5
2.9345359042553194,0.18637029084520873,-0.37840742728869786,1.5
2.942531914893617,0.21571344915088833,-0.3710716377122779,1.5
2.950527925531915,0.24505660745656793,-0.363735848135858,1.5
2.958523936170213,0.27439976576224917,-0.35640005855943774,1.5
2.9665199468085106,0.3037429240679288,-0.3490642689830178,1.5
2.9745159574468087,0.33308608237361004,-0.3417284794065975,1.5
2.9825119680851064,0.3624292406792896,-0.3343926898301776,1.5
2.990507978723404,0.3917723989849692,-0.3270569002537577,1.5
2.9985039893617023,0.4211155572906504,-0.3197211106773374,1.5
3.0065,0.45045871559633,-0.3123853211009175,1.5
3.014496010638298,0.47980187390201123,-0.3050495315244972,1.5
3.0224920212765958,0.685239361702121,-0.09507978723404034,1.3901595744680806
3.0304880319148935,0.44535904255319586,-0.015119680851065284,1.2302393617021306
3.0384840425531916,-0.13808362884160888,-0.2228501773049653,1.0923832742316784
3.0464800531914893,-0.19361148049645388,-0.2561668882978723,1.0812777039007093
3.0544760638297874,-0.249139332151302,-0.2894835992907812,1.0701721335697396
3.062472074468085,-0.304667183806147,-0.3228003102836882,1.0590665632387706
3.0704680851063832,-0.3601950354609952,-0.35611702127659706,1.047960992907801
3.078464095744681,-0.41572288711584016,-0.38943373226950406,1.036855422576832
3.0864601063829786,-0.47125073877068513,-0.42275044326241107,1.025749852245863
3.0944561170212768,-0.5267785904255333,-0.45606715425531996,1.0146442819148933
3.1024521276595745,-0.5823064420803783,-0.48938386524822697,1.0035387115839243
3.1104481382978726,-0.7990663785460985,-0.39953318927304926,0.8990663785460985
3.1184441489361703,-0.7824080230496451,-0.39120401152482254,0.882408023049645
3.126440159574468,-0.7657496675531915,-0.38287483377659576,0.8657496675531915
3.134436170212766,-0.7490913120567371,-0.37454565602836853,0.849091312056737
3.142432180851064,-0.7324329565602836,-0.3662164782801418,0.8324329565602836
3.150428191489362,-0.7157746010638292,-0.3578873005319146,0.8157746010638292
3.1584242021276596,-0.6991162455673756,-0.3495581227836878,0.7991162455673756
3.1664202127659573,-0.6824578900709222,-0.3412289450354611,0.7824578900709221
3.1744162234042554,-0.6657995345744677,-0.33289976728723386,0.7657995345744677
3.182412234042553,-0.6491411790780142,-0.3245705895390071,0.7491411790780141
3.1904082446808513,-0.6324828235815597,-0.31624141179077986,0.7324828235815597
3.198404255319149,-0.6158244680851062,-0.3079122340425531,0.7158244680851062
3.2064002659574466,-0.608005319148934,-0.29199468085106606,0.7
3.214396276595745,-0.7,-0.2,0.7
3.2223922872340425,-0.7,-0.2,0.7
3.2303882978723406,-0.7,-0.2,0.7
3.2383843085106383,-0.7,-0.2,0.7
3.2463803191489364,-0.7,-0.2,0.7
3.254376329787234,-0.7,-0.2,0.7
3.262372340425532,-0.7,-0.2,0.7
3.27036835106383,-0.7,-0.2,0.7
3.2783643617021276,-0.7,-0.2,0.7
3.2863603723404258,-0.7,-0.2,0.7
3.2943563829787235,-0.7,-0.2,0.7
3.302352393617021,-0.6955950797872361,-0.19559507978723617,0.7
3.3103484042553193,-0.6,-0.06515957446807272,0.7
3.318344414893617,-0.4948112476761002,0.1,0.6948112476761001
3.326340425531915,-0.48704813055153884,0.1,0.6870481305515388
3.334336436170213,-0.479285013426978,0.1,0.6792850134269779
3.3423324468085105,-0.4715218963024171,0.1,0.6715218963024171
3.3503284574468086,-0.4637587791778558,0.1,0.6637587791778558
3.3583244680851063,-0.4559956620532949,0.1,0.6559956620532948
3.3663204787234045,-0.4482325449287336,0.1,0.6482325449287335
3.374316489361702,-0.4404694278041727,0.1,0.6404694278041727
3.3823125,-0.43270631067961185,0.1,0.6327063106796118
3.390308510638298,-0.4249431935550505,0.1,0.6249431935550505
3.3983045212765957,-0.41718007643048965,0.1,0.6171800764304896
3.406300531914894,-0.40941695930592836,0.1,0.6094169593059283
3.4142965425531915,-0.40165384218136746,0.1,0.6016538421813674
3.4222925531914896,-0.1725620567375869,0.22743794326241312,0.4
3.4302885638297873,-0.10592863475177285,0.29407136524822713,0.4
3.438284574468085,-0.019060283687944102,0.3,0.4
3.446280585106383,0.0,0.3098134142287237,0.4
3.454276595744681,0.0,0.32230718085106386,0.4
3.462272606382979,0.0,0.33480094747340466,0.4
3.4702686170212766,0.0,0.3472947140957448,0.4
3.4782646276595743,0.0,0.35978848071808495,0.4
3.4862606382978725,0.0,0.37228224734042575,0.4
3.49425664893617,0.0,0.3847760139627659,0.4
3.5022526595744683,0.0,0.39726978058510676,0.4
3.510248670212766,-0.2082890070922018,0.26114066193853214,0.26114066193853214
3.5182446808510637,0.010203094777562096,0.694898452611219,0.2
3.526240691489362,0.04654859767891722,0.6767257011605413,0.2
3.5342367021276595,0.08289410058027033,0.6585529497098648,0.2
3.5422327127659576,0.11923960348162545,0.6403801982591872,0.2
3.5502287234042553,0.15558510638297857,0.6222074468085107,0.2
3.5582247340425535,0.19193060928433367,0.6040346953578332,0.2
3.566220744680851,0.22827611218568677,0.5858619439071566,0.2
3.574216755319149,0.2646216150870399,0.56768919245648,0.2
3.582212765957447,0.30096711798839504,0.5495164410058024,0.2
3.5902087765957447,0.3373126208897481,0.5313436895551259,0.2
3.598204787234043,0.37365812379110325,0.5131709381044484,0.2
3.6062007978723405,0.546719858156021,0.13320035460994745,-0.24015957446806308
3.614196808510638,0.9013756419662509,0.39587307410124767,-0.9013756419662509
3.6221928191489363,0.9105664587918808,0.36830062362435756,-0.9105664587918808
3.630188829787234,0.9197572756175103,0.34072817314746906,-0.9197572756175103
3.638184840425532,0.9289480924431404,0.313155722670579,-0.9289480924431404
3.64618085106383,0.9381389092687699,0.28558327219369045,-0.9381389092687699
3.6541768617021275,0.9473297260943994,0.2580108217168019,-0.9473297260943994
3.6621728723404257,0.9565205429200294,0.23043837123991184,-0.9565205429200294
3.6701688829787233,0.9657113597456589,0.20286592076302332,-0.9657113597456589
3.6781648936170215,0.9749021765712889,0.17529347028613326,-0.9749021765712889
3.686160904255319,0.9840929933969185,0.14772101980924474,-0.9840929933969185
3.694156914893617,0.993283810222548,0.12014856933235618,-0.993283810222548
3.702152925531915,0.712943262411326,-0.2588209219858425,-1.0717641843971686
3.7101489361702127,0.20281155015197574,-0.19718844984802428,-1.2028115501519756
3.718144946808511,0.20995084536474193,-0.1900491546352581,-1.2099508453647418
3.7261409574468085,0.21709014057750772,-0.1829098594224923,-1.2170901405775076
3.7341369680851066,0.2242294357902739,-0.17577056420972612,-1.2242294357902739
3.7421329787234043,0.2313687310030397,-0.16863126899696032,-1.2313687310030397
3.750128989361702,0.23850802621580547,-0.16149197378419453,-1.2385080262158055
3.758125,0.24564732142857165,-0.15435267857142834,-1.2456473214285717
3.766121010638298,0.25278661664133745,-0.14721338335866255,-1.2527866166413375
3.774117021276596,0.25992591185410363,-0.14007408814589636,-1.2599259118541037
3.7821130319148937,0.2670652070668694,-0.1329347929331306,-1.2670652070668695
3.7901090425531914,0.2742045022796352,-0.1257954977203648,-1.2742045022796353
3.7981050531914895,0.2813437974924014,-0.1186562025075986,-1.2813437974924013
3.806101063829787,0.2884830927051672,-0.11151690729483281,-1.2884830927051671
3.8140970744680853,0.2956223879179334,-0.10437761208206663,-1.2956223879179334
3.822093085106383,0.33866356382978824,-0.061336436170211735,-1.3
3.8300890957446807,0.4386136968085093,0.03861369680850932,-1.3
3.838085106382979,0.3,0.1,-1.3
3.8460811170212765,0.3,0.1,-1.3
3.8540771276595747,0.3,0.1,-1.3
3.8620731382978724,0.3,0.1,-1.3
3.8700691489361705,0.3,0.1,-1.3
3.878065159574468,0.3,0.1,-1.3
3.886061170212766,0.3,0.1,-1.3
3.894057180851064,0.3,0.1,-1.3
3.9020531914893617,0.3,0.1,-1.3
3.91004920212766,0.3,0.1,-1.3
3.9180452127659575,0.3,0.1,-1.3
3.926041223404255,0.3,0.1,-1.3
3.9340372340425533,0.2,0.2,-1.049379432624112
3.942033244680851,0.2,0.2,-0.9161125886524838
3.950029255319149,0.1,0.2,-0.6905108390204729
3.958025265957447,0.1,0.2,-0.6754240264953831
3.9660212765957445,0.1,0.2,-0.6603372139702932
3.9740172872340427,0.1,0.2,-0.6452504014452025
3.9820132978723404,0.1,0.2,-0.6301635889201127
3.9900093085106385,0.1,0.2,-0.615076776395022
3.998005319148936,0.09911347517733698,0.2,-0.5998226950354674
4.006001329787234,-0.542895136778121,0.2,-0.4285524316109396
4.013997340425532,-0.5912146364274017,0.2,-0.29560731821370084
4.02199335106383,-0.5736409866729013,0.2,-0.28682049333645065
4.029989361702127,-0.5560673369184009,0.2,-0.27803366845920047
4.037985372340426,-0.5384936871638986,0.2,-0.2692468435819493
4.045981382978724,-0.5209200374093982,0.2,-0.2604600187046991
4.053977393617021,-0.5033463876548978,0.2,-0.2516731938274489
4.061973404255319,-0.48577273790039743,0.2,-0.24288636895019872
4.069969414893617,-0.46819908814589706,0.2,-0.23409954407294853
4.077965425531915,-0.4506254383913948,0.2,-0.2253127191956974
4.085961436170213,-0.4330517886368944,0.2,-0.2165258943184472
4.093957446808511,-0.415478138882394,0.2,-0.207739069441197
4.101953457446808,-0.24109042553193696,0.1682180851063874,-0.10465425531916217
4.109949468085106,0.35797872340425185,0.1,0.45797872340425183
4.117945478723405,0.4,0.09379867971124564,0.5062013202887544
4.125941489361702,0.4,0.08665938449847985,0.5133406155015201
4.1339375,0.4,0.07952008928571407,0.5204799107142859
4.141933510638298,0.4,0.07238079407294827,0.5276192059270517
4.149929521276595,0.4,0.06524149886018249,0.5347585011398175
4.157925531914894,0.4,0.058102203647415904,0.5418977963525841
4.165921542553192,0.4,0.05096290843465011,0.5490370915653499
4.173917553191489,0.4,0.04382361322188432,0.5561763867781157
4.181913563829787,0.4,0.03668431800911853,0.5633156819908814
4.189909574468085,0.4,0.029545022796352738,0.5704549772036472
4.197905585106383,0.4,0.022405727583586166,0.5775942724164138
4.205901595744681,0.4,0.01526643237082037,0.5847335676291796
4.213897606382979,0.4,0.00812713715805459,0.5918728628419454
4.221893617021276,0.4,0.0009878419452887949,0.5990121580547112
4.229889627659574,0.4,-0.0861203457446779,0.7722406914893558
4.237885638297873,0.4,-0.18607047872341004,0.97214095744682
4.24588164893617,0.2,-0.4061613475177308,1.2061613475177309
4.253877659574468,0.2,-0.4188534278959812,1.218853427895981
4.261873670212766,0.2,-0.4315455082742315,1.2315455082742315
4.269869680851064,0.2,-0.4442375886524833,1.2442375886524832
4.277865691489362,0.2,-0.4569296690307336,1.2569296690307337
4.28586170212766,0.2,-0.469621749408984,1.269621749408984
4.293857712765957,0.2,-0.48231382978723436,1.2823138297872343
4.301853723404255,0.2,-0.4950059101654847,1.2950059101654847
4.309849734042554,0.0,-0.3,1.6
4.317845744680851,-0.10622161128376915,-0.3,1.597926129572077
4.325841755319149,-0.1331744561319635,-0.3,1.5889418479560122
4.333837765957447,-0.16012730098015784,-0.3,1.5799575663399474
4.341833776595744,-0.1870801458283522,-0.3,1.5709732847238826
4.349829787234043,-0.21403299067654952,-0.3,1.561989003107817
4.357825797872341,-0.24098583552474384,-0.3,1.5530047214917522
4.365821808510638,-0.2679386803729382,-0.3,1.5440204398756874
4.373817819148936,-0.2948915252211325,-0.3,1.5350361582596226
4.381813829787234,-0.32184437006932687,-0.3,1.5260518766435578
4.389809840425532,-0.3487972149175242,-0.3,1.5170675950274919
4.39780585106383,-0.3757500597657185,-0.3,1.508083313411427
4.405801861702128,-0.6138297872339871,-0.3,1.4465425531915033
4.413797872340425,-0.5944974321349988,-0.19908290535583315,1.0981658107116663
4.421793882978723,-0.5393525311812215,-0.1898920885302036,1.0797841770604073
4.429789893617022,-0.484207630227438,-0.180701271704573,1.061402543409146
4.437785904255319,-0.4290627292736607,-0.17151045487894345,1.043020909757887
4.445781914893617,-0.37391782831988335,-0.1623196380533139,1.0246392761066279
4.453777925531915,-0.318772927366106,-0.15312882122768434,1.0062576424553686
4.4617739361702125,-0.2636280264123287,-0.1439380044020548,0.9878760088041096
4.469769946808511,-0.20848312545854525,-0.1347471875764242,0.9694943751528484
4.477765957446809,-0.15333822450476792,-0.12555637075079465,0.9511127415015893
4.485761968085106,-0.09819332355099053,-0.1163655539251651,0.9327311078503302
4.493757978723404,-0.0430484225972132,-0.10717473709953554,0.9143494741990711
4.501753989361702,0.10793780687395721,-0.0460310965630214,0.8325388707037767
4.50975,0.6000000000000274,0.2000000000000137,0.5249999999999829
4.517746010638298,-0.10890821754233698,0.09821835649153261,0.3
4.525742021276596,-0.14970419018671302,0.0900591619626574,0.3
4.533738031914893,-0.19050016283108906,0.0818999674337822,0.3
4.541734042553191,-0.23129613547546507,0.07374077290490699,0.3
4.54973005319149,-0.27209210811984563,0.06558157837603087,0.3
4.557726063829787,-0.31288808076422164,0.05742238384715568,0.3
4.565722074468085,-0.35368405340859765,0.04926318931828047,0.3
4.573718085106383,-0.3944800260529737,0.04110399478940527,0.3
4.581714095744681,-0.4352759986973542,0.03294480026052915,0.3
4.589710106382979,-0.4760719713417303,0.024785605731653948,0.3
4.597706117021277,-0.5168679439861064,0.016626411202778746,0.3
4.605702127659574,-0.5576639166304823,0.008467216673903544,0.3
4.613698138297872,-0.5984598892748584,0.0003080221450283416,0.3
4.621694148936171,-0.2,-0.09800688360450518,0.5019931163954948
4.629690159574468,-0.2,-0.08859981226533144,0.5114001877346686
4.637686170212766,-0.2,-0.07919274092615768,0.5208072590738423
4.645682180851064,-0.2,-0.06978566958698391,0.5302143304130161
4.6536781914893615,-0.2,-0.06037859824781016,0.5396214017521899
4.66167420212766,-0.2,-0.05097152690863536,0.5490284730913646
4.669670212765958,-0.2,-0.0415644555694616,0.5584355444305384
4.677666223404255,-0.2,-0.03215738423028784,0.5678426157697122
4.685662234042553,-0.2,-0.022750312891114094,0.5772496871088859
4.693658244680851,-0.2,-0.013343241551940332,0.5866567584480596
4.701654255319149,-0.2,-0.00393617021276553,0.5960638297872345
4.709650265957447,-0.1,0.0,0.41748670212764677
4.717646276595745,0.0,-0.1,0.29576014349332047
4.7256422872340424,0.0,-0.1,0.2864624567046022
4.73363829787234,0.0,-0.1,0.2771647699158839
4.741634308510639,0.0,-0.1,0.26786708312716456
4.749630319148936,0.0,-0.1,0.2585693963384462
4.757626329787234,0.0,-0.1,0.24927170954972794
4.765622340425532,0.0,-0.1,0.23997402276100963
4.7736183510638295,0.0,-0.1,0.2306763359722913
4.781614361702128,0.0,-0.1,0.22137864918357197
4.789610372340426,0.0,-0.1,0.2120809623948537
4.797606382978723,0.0,-0.1,0.20278327560613535
4.805602393617021,-0.0509308510638295,-0.1,0.2
4.813598404255319,-0.1,-0.013386524822707427,0.11338652482270743
4.821594414893617,0.0,0.1,-0.00132867907801426
4.829590425531915,0.0,0.1,-0.007992021276595663
4.837586436170213,0.0,0.1,-0.014655363475177065
4.8455824468085105,0.0,0.1,-0.02131870567375847
4.853578457446808,0.0,0.1,-0.02798204787233987
4.861574468085107,0.0,0.1,-0.034645390070922016
4.869570478723404,0.0,0.1,-0.04130873226950341
4.877566489361702,0.0,0.1,-0.04797207446808482
4.8855625,0.0,0.1,-0.05463541666666622
4.893558510638298,0.0,0.1,-0.06129875886524836
4.901554521276596,0.0,0.1,-0.06796210106382977
4.909550531914894,0.0,0.1,-0.07462544326241118
4.9175465425531915,0.0,0.1,-0.08128878546099257
4.925542553191489,0.0,0.1,-0.08795212765957397
4.933538563829788,0.0,0.1,-0.09461546985815612
4.941534574468085,-0.10230496453902814,0.15115248226951408,-0.15115248226951408
4.949530585106383,-0.41618066109422436,0.3,-0.2
4.957526595744681,-0.44473784194528754,0.3,-0.2
4.9655226063829785,-0.47329502279635066,0.3,-0.2
4.973518617021277,-0.501852203647417,0.3,-0.2
4.981514627659575,-0.5304093844984801,0.3,-0.2
4.9895106382978724,-0.5589665653495433,0.3,-0.2
4.99750664893617,-0.5875237462006064,0.3,-0.2
5.005502659574468,-0.7284954407294906,0.30725683890576416,-0.1
5.013498670212766,0.01388150118203494,0.7972236997635931,-0.10555260047281398
5.021494680851064,0.05830378250591107,0.7883392434988178,-0.12332151300236444
5.029490691489362,0.10272606382978719,0.7794547872340426,-0.14109042553191486
5.0374867021276595,0.14714834515366332,0.7705703309692673,-0.15885933806146532
5.045482712765957,0.19157062647753945,0.7616858747044921,-0.17662825059101578
5.053478723404256,0.23599290780142052,0.7528014184397159,-0.1943971631205682
5.061474734042553,0.2804151891252966,0.7439169621749406,-0.21216607565011864
5.069470744680851,0.32483747044917277,0.7350325059101654,-0.2299349881796691
5.077466755319149,0.36925975177304887,0.7261480496453903,-0.24770390070921955
5.0854627659574465,0.41368203309692503,0.717263593380615,-0.26547281323877
5.093458776595745,0.45810431442080607,0.7083791371158388,-0.2832417257683224
5.101454787234043,0.5454787234042645,0.5180851063829419,-0.4819148936170581
5.1094507978723405,0.26885342789597305,0.3,-1.279506501182047
5.117446808510638,0.3145004625346883,0.39516651248843726,-1.6048334875115629
5.125442819148936,0.3405744102682678,0.3864751965772441,-1.613524803422756
5.133438829787234,0.36664835800185025,0.37778388066604995,-1.6222161193339502
5.141434840425532,0.39272230573542977,0.36909256475485674,-1.6309074352451434
5.14943085106383,0.4187962534690093,0.3604012488436636,-1.6395987511563366
5.1574268617021275,0.4448702012025888,0.3517099329324704,-1.6482900670675296
5.165422872340425,0.4709441489361683,0.34301861702127723,-1.6569813829787228
5.173418882978724,0.4970180966697507,0.3343273011100831,-1.6656726988899169
5.1814148936170215,0.5230920444033302,0.3256359851988899,-1.67436401480111
5.189410904255319,0.5491659921369099,0.3169446692876967,-1.6830553307123033
5.197406914893617,0.5752399398704893,0.30825335337650356,-1.6917466466234965
5.205402925531915,0.6604388297873082,0.2798537234042306,-1.6597074468084612
5.213398936170213,1.294513975803085,0.1,-0.3958854818523137
5.221394946808511,1.2631570713391724,0.1,-0.37236780350437937
5.2293909574468085,1.23180016687526,0.1,-0.34885012515644503
5.237386968085106,1.2004432624113477,0.1,-0.32533244680851076
5.245382978723405,1.1690863579474318,0.1,-0.3018147684605738
5.2533789893617024,1.1377294534835194,0.1,-0.2782970901126395
5.261375,1.106372549019607,0.1,-0.2547794117647052
5.269371010638298,1.0750156445556944,0.1,-0.23126173341677086
5.2773670212765955,1.043658740091782,0.1,-0.20774405506883656
5.285363031914894,1.0123018356278661,0.1,-0.18422637672089964
5.293359042553192,0.9809449311639538,0.1,-0.1607086983729653
5.3013550531914895,0.9495880267000414,0.1,-0.13719102002503097
5.309351063829787,0.918231122236129,0.1,-0.1136733416770967
5.317347074468085,0.12039007092200427,-0.04490248226949893,0.2347074468084968
5.325343085106383,-0.03656914893616382,-0.03656914893616382,0.4634308510638362
5.333339095744681,0.01759092869465431,0.0,0.5058636428982181
5.341335106382979,0.05000718803910447,0.0,0.5166690626797015
5.3493311170212765,0.08242344738355463,0.0,0.5274744824611849
5.357327127659574,0.1148397067280048,0.0,0.5382799022426683
5.365323138297873,0.14725596607245856,0.0,0.5490853220241528
5.3733191489361705,0.17967222541690872,0.0,0.5598907418056362
5.381315159574468,0.2120884847613589,0.0,0.5706961615871197
5.389311170212766,0.24450474410580905,0.0,0.581501581368603
5.3973071808510635,0.2769210034502592,0.0,0.5923070011500864
5.405303191489362,0.6202127659574569,-0.1,0.8101063829787285
5.41329920212766,0.5931266622340423,-0.10343666888297881,0.7896899933510636
5.4212952127659575,0.5764683067375889,-0.11176584663120558,0.7647024601063833
5.429291223404255,0.5598099512411353,-0.12009502437943233,0.739714926861703
5.437287234042553,0.5431515957446819,-0.1284242021276591,0.7147273936170229
5.4452832446808515,0.5264932402482265,-0.13675337987588676,0.6897398603723398
5.453279255319149,0.509834884751773,-0.1450825576241135,0.6647523271276595
5.461275265957447,0.4931765292553195,-0.15341173537234026,0.6397647938829792
5.4692712765957445,0.476518173758866,-0.16174091312056701,0.614777260638299
5.477267287234042,0.4598598182624125,-0.17007009086879377,0.5897897273936187
5.485263297872341,0.4432014627659572,-0.17839926861702146,0.5648021941489356
5.4932593085106385,0.4265431072695036,-0.1867284463652482,0.5398146609042553
5.501255319148936,0.40988475177305017,-0.19505762411347496,0.5148271276595752
5.509251329787234,-0.4171099290779365,-0.15828900709220636,-0.13368794326234917
5.517247340425532,-1.4013707037643213,-0.1,-0.8041121112929641
5.52524335106383,-1.4101575286415715,-0.1,-0.8304725859247146
5.533239361702128,-1.4189443535188218,-0.1,-0.8568330605564652
5.5412353723404255,-1.4277311783960718,-0.1,-0.8831935351882159
5.549231382978723,-1.436518003273322,-0.1,-0.9095540098199664
5.557227393617022,-1.4453048281505732,-0.1,-0.9359144844517199
5.5652234042553195,-1.4540916530278234,-0.1,-0.9622749590834705
5.573219414893617,-1.4628784779050736,-0.1,-0.988635433715221
5.581215425531915,-1.4716653027823239,-0.1,-1.0149959083469717
5.5892114361702125,-1.4804521276595741,-0.1,-1.0413563829787222
5.597207446808511,-1.4892389525368253,-0.1,-1.0677168576104756
5.605203457446809,-1.4980257774140755,-0.1,-1.0940773322422264
5.6131994680851065,-1.350132978723477,-0.6398936170212183,-1.150132978723477
5.621195478723404,-0.859150689735798,-1.027232873509468,-0.6591506897357979
5.629191489361702,-0.8064297404722969,-1.0623801730184688,-0.6064297404722968
5.6371875000000005,-0.7537087912087899,-1.0975274725274733,-0.5537087912087899
5.645183510638298,-0.7009878419452887,-1.132674772036474,-0.5009878419452887
5.653179521276596,-0.6482668926817876,-1.167822071545475,-0.44826689268178754
5.6611755319148935,-0.5955459434182864,-1.2029693710544755,-0.3955459434182864
5.669171542553191,-0.5428249941547852,-1.2381166705634765,-0.3428249941547853
5.67716755319149,-0.49010404489127823,-1.273263970072481,-0.2901040448912783
5.6851635638297875,-0.4373830956277771,-1.3084112695814818,-0.23738309562777715
5.693159574468085,-0.384662146364276,-1.3435585690904825,-0.18466214636427603
5.701155585106383,-0.33194119710077474,-1.3787058685994833,-0.1319411971007749
5.709151595744681,0.46281431334620177,-1.5581237911025323,0.4732833655705687
5.717147606382979,0.898960348162483,-1.267359767891678,0.9821204061895636
5.725143617021277,0.8771276595744669,-0.9542553191489337,1.1
5.7331396276595745,0.7850374903870805,-0.7950124967956935,1.090024993591387
5.741135638297872,0.756136247116125,-0.7853787490387083,1.0707574980774168
5.74913164893617,0.7272350038451696,-0.7757450012817232,1.0514900025634464
5.7571276595744685,0.6983337605742109,-0.766111253524737,1.032222507049474
5.765123670212766,0.6694325173032555,-0.7564775057677519,1.0129550115355037
5.773119680851064,0.6405312740323,-0.7468437580107666,0.9936875160215334
5.7811156914893616,0.6116300307613446,-0.7372100102537815,0.974420020507563
5.789111702127659,0.5827287874903891,-0.7275762624967963,0.9551525249935928
5.797107712765958,0.5538275442194305,-0.7179425147398101,0.9358850294796204
5.8051037234042555,0.524926300948475,-0.708308766982825,0.91661753396565
5.813099734042553,0.2786284194528277,-0.39857522796352185,0.3829027355622622
5.821095744680851,-2.5992103531476194,-0.5002961175696428,-0.6998025882869048
5.8290917553191495,-2.533263873656497,-0.5250260473788135,-0.6833159684141242
5.837087765957447,-2.4673173941653825,-0.5497559771879815,-0.6668293485413456
5.845083776595745,-2.401370914674268,-0.5744859069971495,-0.6503427286685669
5.8530797872340425,-2.3354244351831532,-0.5992158368063176,-0.6338561087957882
5.86107579787234,-2.2694779556920386,-0.6239457666154856,-0.6173694889230096
5.869071808510639,-2.2035314762009164,-0.6486756964246563,-0.6008828690502291
5.8770678191489365,-2.1375849967098017,-0.6734056262338244,-0.5843962491774505
5.885063829787234,-2.071638517218687,-0.6981355560429924,-0.5679096293046718
5.893059840425532,-2.0056920377275724,-0.7228654858521604,-0.5514230094318932
5.90105585106383,-1.9397455582364578,-0.7475954156613284,-0.5349363895591145
5.909051861702128,-1.8737990787453358,-0.7723253454704991,-0.5184497696863339
5.917047872340426,-1.807852599254221,-0.7970552752796671,-0.5019631498135553
5.9250438829787235,0.8021941489361857,-1.1912234042552574,-0.686835106382886
5.933039893617021,0.9,-0.823532053053331,-0.076467946946669
5.941035904255319,0.9,-0.8546853412544909,-0.045314658745509155
5.9490319148936175,0.9,-0.8858386294556542,-0.014161370544345839
5.957027925531915,0.9,-0.9169919176568141,0.016991917656814015
5.965023936170213,0.9,-0.9481452058579739,0.048145205857973855
5.973019946808511,0.9,-0.9792984940591338,0.07929849405913372
5.981015957446808,0.9,-1.0104517822602936,0.11045178226029356
5.989011968085107,0.9,-1.041605070461457,0.1416050704614569
5.9970079787234045,0.9,-1.0727583586626168,0.17275835866261677
6.005003989361702,0.7494015957446527,-1.2505984042553473,0.2501994680851158
6.013,8.368224299065425,-0.6093457943925223,2.003738317757009
6.020996010638298,8.241184877709292,-0.646710330085502,2.018684132034201
6.028992021276596,8.114145456353148,-0.6840748657784861,2.0336299463113945
6.036988031914894,7.987106034997017,-0.7214394014714658,2.0485757605885864
6.0449840425531915,7.860066613640885,-0.7588039371644456,2.0635215748657783
6.052980053191489,7.733027192284754,-0.7961684728574254,2.07846738914297
6.060976063829787,7.605987770928623,-0.8335330085504052,2.093413203420162
6.0689720744680855,7.478948349572478,-0.8708975442433892,2.1083590176973557
6.076968085106383,7.351908928216346,-0.908262079936369,2.1233048319745476
6.084964095744681,7.224869506860214,-0.9456266156293488,2.1382506462517394
6.092960106382979,7.097830085504084,-0.9829911513223286,2.1531964605289318
6.100956117021276,6.970790664147952,-1.0203556870153083,2.1681422748061236
6.108952127659575,6.843751242791806,-1.0577202227082922,2.183088089083317
6.1169481382978725,6.716711821435675,-1.0950847584012722,2.1980339033605087
6.12494414893617,0.026548811013734852,-2.2195869837296707,1.3503441802252745
6.132940159574468,-2.0900422403003165,-2.7840112640800845,0.8799906132665963
6.1409361702127665,-3.77632120796156,-3.095264241592312,0.48105696636924783
6.148932180851064,-3.7118372512010946,-3.082367450240219,0.4294698009608759
6.156928191489362,-3.6473532944406295,-3.069470658888126,0.3778826355525039
6.16492420212766,-3.582869337680165,-3.056573867536033,0.32629547014413196
6.172920212765957,-3.5183853809196997,-3.0436770761839402,0.27470830473575997
6.180916223404256,-3.453901424159228,-3.0307802848318457,0.2231211393273823
6.1889122340425535,-3.3894174673987627,-3.0178834934797525,0.17153397391901032
6.196908244680851,-3.3249335106382976,-3.0049867021276597,0.11994680851063838
6.204904255319149,-3.032495164410072,-2.866247582205036,-0.16750483558992782
6.212900265957447,-1.4964982269507217,-2.319946808510754,-1.5134751773046555
6.220896276595745,0.48743351063830376,-1.4417109929077976,-2.9291445035461012
6.228892287234043,0.6302194148936202,-1.34652039007092,-2.97673980496454
6.236888297872341,0.7730053191489368,-1.251329787234042,-3.0243351063829786
6.244884308510638,0.9157912234042533,-1.1561391843971645,-3.0719304078014176
6.252880319148936,1.0585771276595697,-1.0609485815602868,-3.1195257092198565
6.2608763297872345,1.2013630319149022,-0.9657579787233985,-3.1671210106383008
6.268872340425532,1.3441489361702188,-0.8705673758865209,-3.2147163120567397
6.27686835106383,1.4869348404255351,-0.7753767730496431,-3.262311613475178
6.284864361702128,1.629720744680852,-0.6801861702127655,-3.309906914893617
6.292860372340425,1.7725066489361683,-0.5849955673758879,-3.357502216312056
6.300856382978724,1.9856382978723965,-0.46329787234040143,-3.4122340425531994
6.3088523936170215,2.229521276595672,-1.6201684397165923,-3.4382535460992787
6.316848404255319,3.112639694820542,-2.5,-3.395102621964324
6.324844414893617,3.2984055985385705,-2.5,-3.3870258435418013
6.332840425531915,3.4841715022565993,-2.5,-3.3789490651192784
6.340836436170213,3.669937405974648,-2.5,-3.370872286696754
6.348832446808511,3.8557033096926765,-2.5,-3.3627955082742313
6.356828457446809,4.041469213410705,-2.5,-3.3547187298517085
6.364824468085106,4.227235117128734,-2.5,-3.346641951429185
6.372820478723404,4.413001020846762,-2.5,-3.3385651730066623
6.3808164893617025,4.598766924564811,-2.5,-3.3304883945841386
6.3888125,4.784532828282839,-2.5,-3.3224116161616157
6.396808510638298,4.970298732000868,-2.5,-3.3143348377390924
6.404804521276596,5.156064635718897,-2.5,-3.3062580593165696
6.412800531914893,4.899135638298409,-4.760172872340318,-3.300066489361661
6.420796542553192,-1.613805609284335,-5.6827429883945815,-3.389645793036749
6.42879255319149,-1.6428820116054172,-5.646397485493229,-3.367838491295937
6.436788563829787,-1.6719584139264996,-5.610051982591876,-3.3460311895551254
6.444784574468085,-1.7010348162475821,-5.5737064796905225,-3.3242238878143135
6.452780585106383,-1.7301112185686645,-5.53736097678917,-3.3024165860735017
6.460776595744681,-1.7591876208897501,-5.501015473887812,-3.2806092843326873
6.468772606382979,-1.7882640232108327,-5.46466997098646,-3.2588019825918755
6.476768617021277,-1.817340425531915,-5.428324468085107,-3.2369946808510637
6.484764627659574,-1.8464168278529973,-5.391978965183753,-3.215187379110252
6.492760638297873,-1.875493230174083,-5.3556334622823965,-3.193380077369438
6.500756648936171,-1.9045696324951655,-5.319287959381043,-3.171572775628626
6.508752659574468,-1.9336460348162479,-5.28294245647969,-3.1497654738878142
6.516748670212766,-1.9627224371373302,-5.246596953578337,-3.1279581721470024
6.524744680851064,-1.9917988394584127,-5.210251450676984,-3.1061508704061906
6.532740691489362,-1.3685239361701587,-5.314813829787244,-3.042593085106378
6.54073670212766,-0.15265957446800582,-5.6802526595744975,-3.0467087765957497
6.548732712765958,0.6871285766691114,-5.903464325018336,-3.0806928650036673
6.556728723404255,0.6595561261922228,-5.696670946441671,-3.039334189288334
6.564724734042553,0.6319836757153341,-5.4898775678650065,-2.9979755135730013
6.5727207446808515,0.6044112252384424,-5.283084189288318,-2.9566168378576636
6.580716755319149,0.5768387747615538,-5.076290810711653,-2.9152581621423304
6.588712765957447,0.549266324284665,-4.869497432134988,-2.8738994864269976
6.596708776595745,0.5216938738077764,-4.662704053558323,-2.8325408107116643
6.604704787234042,0.5,-3.903324468085307,-2.0328457446811092
6.612700797872341,-0.0718085106382802,-3.85385638297871,-3.2461436170212896
6.620696808510639,0.3673476789168238,-3.8174927466150868,-3.2737608800773694
6.628692819148936,0.7489754593810353,-3.8356654980657634,-3.2465017529013545
6.636688829787234,1.1306032398452468,-3.85383824951644,-3.2192426257253395
6.644684840425532,1.5122310203094582,-3.872011000967117,-3.1919834985493245
6.65268085106383,1.893858800773712,-3.8901837524177956,-3.164724371373306
6.660676861702128,2.2754865812379235,-3.9083565038684727,-3.137465244197291
6.668672872340426,2.657114361702135,-3.9265292553191493,-3.110206117021276
6.676668882978723,3.0387421421663463,-3.944702006769826,-3.082946989845261
6.684664893617021,3.4203699226305577,-3.9628747582205026,-3.0556878626692456
6.69266090425532,3.8019977030948118,-3.9810475096711815,-3.0284287354932276
6.700656914893617,4.183625483559023,-3.999220261121858,-3.0011696083172126
6.708652925531915,-2.092537993920974,-4.5968908308004055,-1.5043528368794317
6.716648936170213,-2.0011550151975714,-4.558814589665655,-1.5576595744680832
6.72464494680851,-1.909772036474169,-4.520738348530903,-1.6109663120567348
6.732640957446809,-1.8183890577507564,-4.482662107396148,-1.6642730496453924
6.740636968085107,-1.7270060790273538,-4.444585866261397,-1.7175797872340437
6.748632978723404,-1.6356231003039512,-4.406509625126646,-1.7708865248226953
6.756628989361702,-1.5442401215805486,-4.368433383991895,-1.8241932624113468
6.764625,-1.452857142857146,-4.330357142857144,-1.8774999999999984
6.772621010638298,-1.3614741641337331,-4.292280901722388,-1.9308067375886557
6.780617021276596,-1.2700911854103305,-4.254204660587638,-1.9841134751773073
6.788613031914894,-1.1787082066869279,-4.216128419452886,-2.0374202127659586
6.796609042553191,-1.0873252279635255,-4.1780521783181355,-2.09072695035461
6.80460505319149,-0.9959422492401127,-4.1399759371833795,-2.144033687943268
6.812601063829788,-0.90455927051671,-4.101899696048629,-2.1973404255319195
6.820597074468085,2.862786614335876,-4.890696653583969,-4.45813494112786
6.828593085106383,2.6764718033464145,-4.844117950836604,-4.248530778764716
6.836589095744681,2.4901569923569533,-4.7975392480892385,-4.0389266164015725
6.844585106382979,2.3038421813674717,-4.750960545341868,-3.8293224540384054
6.852581117021277,2.1175273703780104,-4.704381842594503,-3.6197182916752615
6.860577127659575,1.9312125593885492,-4.657803139847138,-3.4101141293121175
6.868573138297872,1.744897748399088,-4.611224437099772,-3.2005099669489736
6.87656914893617,1.558582937409627,-4.564645734352407,-2.99090580458583
6.884565159574469,1.372268126420145,-4.518067031605036,-2.7813016422226626
6.892561170212766,1.1859533154306838,-4.471488328857671,-2.571697479859519
6.900557180851064,0.9996385044412226,-4.424909626110305,-2.362093317496375
6.908553191489362,0.8133236934517614,-4.37833092336294,-2.1524891551332312
6.916549202127659,0.6270088824623001,-4.331752220615575,-1.9428849927700873
6.924545212765958,0.423643617021259,-3.790957446808393,-1.189148936170072
6.932541223404256,0.47061170212775993,-2.3,1.4659574468088319
6.940537234042553,-0.6053594455190197,-1.762483881366862,3.3892811089619603
6.948533244680851,-0.6174746131528042,-1.677677707930371,3.3650507736943918
6.956529255319149,-0.6295897807865886,-1.5928715344938802,3.3408204384268227
6.964525265957447,-0.6417049484203743,-1.5080653610573798,3.3165901031592515
6.972521276595745,-0.6538201160541587,-1.423259187620889,3.2923597678916825
6.980517287234043,-0.6659352836879431,-1.3384530141843982,3.268129432624114
6.98851329787234,-0.6780504513217275,-1.2536468407479073,3.243899097356545
6.996509308510638,-0.6901656189555119,-1.1688406673114164,3.2196687620889763
7.004505319148937,-0.17313829787217416,-0.8742021276595033,3.275265957446832
7.012501329787234,-1.5005319148937488,0.40026595744687443,3.0398936170212503
7.020497340425532,-1.717435675408214,0.5087178377041071,2.982564324591786
7.02849335106383,-1.7360310489856505,0.5180155244928253,2.9639689510143494
7.036489361702127,-1.7546264225630868,0.5273132112815434,2.945373577436913
7.044485372340426,-1.7732217961405254,0.5366108980702626,2.9267782038594747
7.052481382978724,-1.7918171697179617,0.5459085848589809,2.9081828302820383
7.060477393617021,-1.8104125432953981,0.5552062716476991,2.889587456704602
7.068473404255319,-1.8290079168728346,0.5645039584364173,2.8709920831271654
7.076469414893617,-1.847603290450271,0.5738016452251355,2.852396709549729
7.084465425531915,-1.8661986640277095,0.5830993320138548,2.8338013359722902
7.092461436170213,-1.884794037605146,0.592397018802573,2.8152059623948538
7.100457446808511,-1.5356382978723462,0.38138297872340776,2.727127659574469
7.108453457446808,-0.9872074468084902,0.5325531914893069,2.31279255319151
7.116449468085107,-1.1697608965089827,1.1043198719272882,2.1
7.124445478723405,-1.1154190766370564,1.112082989051849,2.1
7.132441489361702,-1.0610772567651303,1.11984610617641,2.1
7.1404375,-1.0067354368932042,1.127609223300971,2.1
7.148433510638298,-0.9523936170212779,1.1353723404255318,2.1
7.156429521276596,-0.8980517971493458,1.1431354575500934,2.1
7.164425531914894,-0.8437099772774195,1.1508985746746543,2.1
7.172421542553192,-0.7893681574054934,1.1586616917992152,2.1
7.180417553191489,-0.7350263375335673,1.166424808923776,2.1
7.188413563829787,-0.6806845176616411,1.174187926048337,2.1
7.196409574468086,-0.6263426977897089,1.1819510431728988,2.1
7.204405585106383,-0.5720008779177826,1.1897141602974597,2.1
7.212401595744681,-0.5176590580458564,1.1974772774220204,2.1
7.220397606382979,-0.4803191489361854,2.218882978723351,2.7200797872340465
7.228393617021276,-0.30757978723404666,2.555452127659572,2.663031914893619
7.236389627659575,-0.2076296542553145,2.6154222074468114,2.623051861702126
7.244385638297873,-0.10767952127659342,2.675392287234044,2.5830718085106374
7.25238164893617,-0.007729388297872397,2.7353623670212768,2.543091755319149
7.260377659574468,0.09222074468084862,2.7953324468085095,2.5031117021276605
7.268373670212766,0.19217087765956964,2.8553025265957417,2.463131648936172
7.276369680851064,0.29212101063830187,2.915272606382981,2.423151595744679
7.284365691489362,0.3920711436170229,2.9752426861702137,2.3831715425531907
7.29236170212766,0.4920212765957439,3.0352127659574464,2.3431914893617023
7.300357712765957,0.5919714095744649,3.095182845744679,2.303211436170214
7.308353723404255,0.6988710955183344,2.598494794024446,2.700752602987777
7.316349734042554,0.6733519126301475,2.564469216840197,2.717765391579902
7.324345744680851,0.6478327297419635,2.5304436396559513,2.7347781801720243
7.332341755319149,0.6223135468537795,2.4964180624717063,2.7517909687641473
7.340337765957447,0.5967943639655955,2.462392485287461,2.76880375735627
7.348333776595744,0.5712751810774114,2.4283669081032153,2.7858165459483923
7.356329787234043,0.5457559981892246,2.3943413309189663,2.802829334540517
7.364325797872341,0.5202368153010405,2.360315753734721,2.8198421231326396
7.372321808510638,0.4947176324128565,2.3262901765504753,2.836854911724762
7.380317819148936,0.4691984495246725,2.2922645993662303,2.853867700316885
7.388313829787234,0.44367926663648843,2.258239022181985,2.8708804889090076
7.396309840425532,0.41816008374830155,2.2242134449977358,2.8878932775011323
7.40430585106383,0.4329407294832852,2.0682370820668594,2.9658814589665705
7.412301861702128,-0.26037234042555846,1.054720744680831,3.0424534574468054
7.420297872340425,-0.6196808510638302,0.7934397163120567,2.98031914893617
7.428293882978724,-0.6446683843085133,0.785110538563829,2.955331615691487
7.436289893617022,-0.6696559175531935,0.7767813608156022,2.9303440824468066
7.444285904255319,-0.6946434507978737,0.7684521830673754,2.9053565492021263
7.452281914893617,-0.719630984042554,0.7601230053191487,2.880369015957446
7.460277925531915,-0.7446185172872343,0.751793827570922,2.8553814827127657
7.468273936170213,-0.7696060505319173,0.7434646498226942,2.8303939494680828
7.476269946808511,-0.7945935837765976,0.7351354720744675,2.8054064162234025
7.484265957446809,-0.8195811170212779,0.7268062943262407,2.780418882978722
7.492261968085106,-0.8445686502659582,0.7184771165780139,2.755431349734042
7.500257978723404,-0.8695561835106385,0.7101479388297872,2.7304438164893616
7.508253989361703,-0.8945437167553214,0.7018187610815595,2.7054562832446787
7.51625,1.20445544554456,2.7037128712871334,3.300990099009902
7.524246010638298,1.3469586054350138,2.822465504529178,3.3326574678744474
7.532242021276596,1.4894617653254678,2.9412181377712234,3.3643248367389926
7.540238031914893,1.6319649252159216,3.059970771013268,3.395992205603538
7.548234042553192,1.7744680851063914,3.1787234042553263,3.427659574468087
7.55623005319149,1.9169712449968452,3.297476037497371,3.4593269433326324
7.564226063829787,2.0594744048872995,3.4162286707394163,3.4909943121971776
7.572222074468085,2.201977564777753,3.534981303981461,3.522661681061723
7.580218085106383,2.344480724668207,3.653733937223506,3.5543290499262685
7.588214095744681,2.486983884558677,3.7724865704655643,3.5859964187908173
7.596210106382979,2.6294870444491307,3.891239203707609,3.6176637876553626
7.604206117021277,2.771990204339585,4.009991836949654,3.649331156519908
7.612202127659574,2.9144933642300384,4.128744470191699,3.680998525384453
7.620198138297872,2.4695171849427746,5.071041325695636,3.593903436988555
7.628194148936171,1.239361702127599,3.902393617021219,3.34787234042552
7.636190159574468,0.5227868541033451,3.140754179331303,3.158983662613979
7.644186170212766,0.5799012158054713,2.992256838905775,3.056177811550152
7.652182180851064,0.6370155775075974,2.843759498480247,2.953371960486325
7.660178191489361,0.6941299392097235,2.695262158054719,2.850566109422498
7.66817420212766,0.751244300911856,2.5467648176291746,2.7477602583586593
7.676170212765958,0.8083586626139821,2.3982674772036465,2.644954407294832
7.684166223404255,0.8654730243161082,2.2497701367781184,2.5421485562310053
7.692162234042553,0.9225873860182343,2.101272796352591,2.439342705167178
7.700158244680851,0.9797017477203604,1.9527754559270627,2.336536854103351
7.708154255319149,1.7877659574468143,1.2968085106382885,1.2260638297872266
7.716150265957447,2.258797872340426,0.4072952127659587,0.5330465425531924
7.724146276595745,2.194829787234044,0.2633670212765998,0.4290984042553221
7.732142287234042,2.1308617021276626,0.11943882978724085,0.3251502659574517
7.740138297872341,2.0668936170212735,-0.024489361702134116,0.22120212765956987
7.748134308510639,2.002925531914892,-0.16841755319149299,0.1172539893616995
7.756130319148936,1.93895744680851,-0.31234574468085197,0.0133058510638292
7.764126329787234,1.8749893617021285,-0.45627393617021095,-0.09064228723404111
7.772122340425532,1.8110212765957467,-0.6002021276595699,-0.19459042553191142
7.78011835106383,1.747053191489358,-0.7441303191489448,-0.2985385638297934
7.788114361702128,1.683085106382976,-0.8880585106383037,-0.4024867021276636
7.796110372340426,1.6191170212765944,-1.0319867021276627,-0.506434840425534
7.804106382978723,1.5551489361702127,-1.1759148936170216,-0.6103829787234044
7.812102393617021,1.11416223404256,-1.7960771276595657,-1.030718085106377
7.82009840425532,-1.9746010638299571,-1.0497340425533046,-0.4549202127659914
7.828094414893617,-2.1572625608818217,-1.1658100487054572,-0.4914525121763643
7.836090425531915,-2.109093822096896,-1.1272750576775168,-0.4818187644193792
7.844086436170213,-2.0609250833119703,-1.0887400666495761,-0.47218501666239404
7.85208244680851,-2.0127563445270447,-1.0502050756216357,-0.4625512689054089
7.860078457446809,-1.9645876057421134,-1.0116700845936908,-0.4529175211484227
7.868074468085107,-1.9164188669571876,-0.9731350935657501,-0.44328377339143754
7.876070478723404,-1.8682501281722619,-0.9346001025378096,-0.43365002563445243
7.884066489361702,-1.8200813893873362,-0.896065111509869,-0.42401627787746726
7.8920625,-1.7719126506024103,-0.8575301204819283,-0.4143825301204821
7.900058510638298,-1.7237439118174793,-0.8189951294539835,-0.4047487823634959
7.908054521276596,-0.08364361702116552,-0.089095744680777,0.35817819148941726
7.916050531914894,0.8202021276595767,0.5151515957446824,0.8050505319148942
7.924046542553191,0.8521861702127675,0.5391396276595756,0.8130465425531919
7.932042553191489,0.8841702127659583,0.5631276595744688,0.8210425531914897
7.940038563829788,0.9161542553191528,0.5871156914893646,0.8290385638297882
7.948034574468085,0.9481382978723436,0.6111037234042578,0.8370345744680859
7.956030585106383,0.9801223404255346,0.6350917553191509,0.8450305851063836
7.964026595744681,1.0121063829787253,0.659079787234044,0.8530265957446814
7.972022606382978,1.0440904255319163,0.6830678191489372,0.8610226063829791
7.980018617021277,1.0760744680851106,0.7070558510638331,0.8690186170212777
7.988014627659575,1.1080585106383016,0.7310438829787262,0.8770146276595754
7.996010638297872,1.1400425531914924,0.7550319148936193,0.8850106382978731
8.004006648936171,1.1720265957446867,0.7790199468085153,0.8930066489361718
8.012002659574469,1.1908849129593695,0.8182301740812608,0.9
8.019998670212766,1.11819390715667,0.96361218568666,0.9
8.027994680851064,0.17655482815061216,0.7541734860883447,0.21563011456625855
8.035990691489362,0.730124795417304,0.26211129296239644,-0.15341653027820268
8.04398670212766,0.7258986137975589,0.13648452611219336,-0.16824226305609669
8.051982712765957,0.6410924403610669,0.06379352030948593,-0.13189676015474297
8.059978723404255,0.556286266924575,-0.00889748549322153,-0.09555125725338924
8.067974734042552,0.47148009348808295,-0.08158849129592899,-0.05920575435203551
8.075970744680852,0.3866739200515721,-0.15427949709865257,-0.02286025145067372
8.08396675531915,0.3018677466150801,-0.22697050290136,0.013485251450679997
8.091962765957447,0.2170615731785881,-0.29966150870406744,0.04983075435203371
8.099958776595745,0.132255399742096,-0.3723525145067749,0.08617625725338746
8.107954787234043,-0.4045212765957799,-0.2090425531915598,-0.1
8.11595079787234,-0.34757715688567076,-0.18252571896189027,-0.10873714051905488
8.123946808510638,-0.2948562076221691,-0.1649520692073897,-0.11752396539630516
8.131942819148936,-0.24213525835866742,-0.14737841945288915,-0.12631079027355543
8.139938829787233,-0.18941430909516577,-0.1298047696983886,-0.1350976151508057
8.147934840425531,-0.13669335983166409,-0.11223111994388804,-0.143884440028056
8.15593085106383,-0.08397241056815075,-0.09465747018938359,-0.15267126490530822
8.163926861702128,-0.031251461304649064,-0.07708382043488303,-0.1614580897825585
8.171922872340426,0.021469487958852618,-0.059510170680382474,-0.1702449146598088
8.179918882978724,0.07419043722235424,-0.041936520925881904,-0.17903173953705906
8.187914893617021,0.12691138648585598,-0.02436287117138136,-0.18781856441430933
8.195910904255319,0.17963233574935755,-0.00678922141688082,-0.1966053892915596
8.203906914893617,0.345345744680854,0.04534574468085402,-0.054654255319145986
8.211902925531914,0.2161634907645509,0.2,0.0
8.219898936170212,0.24252396539630175,0.2,0.0
8.227894946808512,0.26888444002805845,0.2,0.0
8.23589095744681,0.2952449146598093,0.2,0.0
8.243886968085107,0.3216053892915601,0.2,0.0
8.251882978723405,0.3479658639233109,0.2,0.0
8.259878989361702,0.37432633855506176,0.2,0.0
8.267875,0.40068681318681254,0.2,0.0
8.275871010638298,0.4270472878185634,0.2,0.0
8.283867021276595,0.4534077624503142,0.2,0.0
8.291863031914893,0.47976823708206506,0.2,0.0
8.29985904255319,0.6859042553190182,0.10704787234049086,0.0
8.30785505319149,0.8983556669394425,0.09917783346972123,-0.1
8.315851063829788,0.8829787234042544,0.09148936170212722,-0.1
8.323847074468086,0.8676017798690665,0.08380088993453323,-0.1
8.331843085106383,0.8522248363338785,0.07611241816693924,-0.1
8.339839095744681,0.8368478927986905,0.06842394639934525,-0.1
8.347835106382979,0.8214709492635025,0.06073547463175126,-0.1
8.355831117021276,0.8060940057283146,0.05304700286415726,-0.1
8.363827127659574,0.7907170621931265,0.04535853109656327,-0.1
8.371823138297872,0.7753401186579385,0.03767005932896928,-0.1
8.37981914893617,0.7599631751227506,0.029981587561375284,-0.1
8.387815159574469,0.7445862315875591,0.022293115793779586,-0.1
8.395811170212767,0.7292092880523712,0.014604644026185595,-0.1
8.403807180851064,0.7138323445171831,0.006916172258591605,-0.1
8.411803191489362,0.6598404255318896,0.04015957446811038,-0.1
8.41979920212766,0.33667996453901267,0.06833998226950633,0.0
8.427795212765957,0.20341312056738955,0.0017065602836947719,0.0
8.435791223404255,0.18002250409165546,0.0,0.0
8.443787234042553,0.1595199127114048,0.0,0.0
8.45178324468085,0.1390173213311542,0.0,0.0
8.459779255319148,0.11851472995090354,0.0,0.0
8.467775265957448,0.09801213857064833,0.0,0.0
8.475771276595745,0.07750954719039768,0.0,0.0
8.483767287234043,0.05700695581014703,0.0,0.0
8.49176329787234,0.03650436442989641,0.0,0.0
8.499759308510638,0.016001773049645757,0.0,0.0
8.507755319148936,-0.2,0.0,0.0
8.515751329787234,-0.08776312811226795,0.0,-0.006118435943866025
8.523747340425532,-0.0707503395201451,0.0,-0.014624830239927451
8.53174335106383,-0.05373755092802225,0.0,-0.023131224535988877
8.539739361702129,-0.036724762335895625,0.0,-0.03163761883205219
8.547735372340426,-0.019711973743772773,0.0,-0.040144013128113616
8.555731382978724,-0.0026991851516499216,0.0,-0.04865040742417504
8.563727393617022,0.01431360344047293,0.0,-0.05715680172023647
8.57172340425532,0.031326392032595796,0.0,-0.0656631960162979
8.579719414893617,0.04833918062471865,0.0,-0.07416959031235933
8.587715425531915,0.0653519692168415,0.0,-0.08267598460842075
8.595711436170212,0.08236475780896435,0.0,-0.09118237890448218
8.60370744680851,0.0993775464010872,0.0,-0.0996887732005436
8.611703457446808,0.39637562245359914,0.0,-0.09818781122679955
8.619699468085107,0.3793628338614728,0.0,-0.0896814169307364
8.627695478723405,0.3623500452693503,0.0,-0.08117502263467513
8.635691489361703,0.34533725667722776,0.0,-0.07266862833861387
8.6436875,0.32832446808510524,0.0,-0.06416223404255261
8.651683510638298,0.31131167949298266,0.0,-0.05565583974649134
8.659679521276596,0.29429889090086014,0.0,-0.04714944545043007
8.667675531914893,0.2772861023087376,0.0,-0.03864305115436881
8.675671542553191,0.2602733137166151,0.0,-0.030136656858307534
8.683667553191489,0.24326052512449256,0.0,-0.021630262562246275
8.691663563829787,0.22624773653237001,0.0,-0.013123868266185001
8.699659574468086,0.20923494794024372,0.0,-0.004617473970121855
8.707655585106384,-0.06555851063833354,0.0,0.0
8.715651595744681,-0.1,0.0,0.0
8.723647606382979,-0.1,0.0,0.0
8.731643617021277,-0.1,0.0,0.0
8.739639627659574,-0.1,0.0,0.0
8.747635638297872,-0.1,0.0,0.0
8.75563164893617,-0.1,0.0,0.0
8.763627659574468,-0.1,0.0,0.0
8.771623670212765,-0.1,0.0,0.0
8.779619680851065,-0.1,0.0,0.0
8.787615691489362,-0.1,0.0,0.0
8.79561170212766,-0.1,0.0,0.0
8.803607712765958,-0.1,0.0,0.0
8.811603723404255,-0.1,0.0,0.0
8.819599734042553,-0.1,0.0,0.0
8.82759574468085,-0.1,0.0,0.0
8.835591755319149,-0.08626717641844188,0.0,0.0
8.843587765957446,-0.06960882092198836,0.0,0.0
8.851583776595746,-0.05295046542553116,0.0,0.0
8.859579787234043,-0.03629210992907765,0.0,0.0
8.867575797872341,-0.019633754432624148,0.0,0.0
8.875571808510639,-0.0029753989361706312,0.0,0.0
8.883567819148936,0.011141022314480123,0.0,0.0
8.891563829787234,0.03064348728593773,0.0,0.0
8.899559840425532,0.050145952257395335,0.0,0.0
8.90755585106383,0.06964841722885294,0.0,0.0
8.915551861702127,0.08915088220031055,0.0,0.0
8.923547872340425,0.2,0.0,0.0
8.931543882978724,0.19020274937827938,0.0,0.0
8.939539893617022,0.17981831997789277,0.0,0.0
8.94753590425532,0.16943389057750613,0.0,0.0
8.955531914893617,0.15904946117711952,0.0,0.0
8.963527925531915,0.1486650317767329,0.0,0.0
8.971523936170213,0.1382806023763463,0.0,0.0
8.97951994680851,0.12789617297595968,0.0,0.0
8.987515957446808,0.11751174357557305,0.0,0.0
8.995511968085106,0.10712731417518644,0.0,0.0
9.003507978723404,0.0,0.0,0.0
9.011503989361703,-0.09736422172452344,0.0,0.0
9.0195,-0.08894736842105208,0.0,0.0
9.027496010638298,-0.08053051511758073,0.0,0.0
9.035492021276596,-0.07211366181410939,0.0,0.0
9.043488031914894,-0.06369680851063803,0.0,0.0
9.051484042553192,-0.05527995520716667,0.0,0.0
9.05948005319149,-0.04686310190369532,0.0,0.0
9.067476063829787,-0.03844624860022396,0.0,0.0
9.075472074468085,-0.03002939529675261,0.0,0.0
9.083468085106382,-0.021612541993281262,0.0,0.0
9.091464095744682,-0.013195688689808027,0.0,0.0
9.09946010638298,-0.00477883538633668,0.0,0.0
9.107456117021277,0.0,0.0,0.0
9.115452127659575,0.0,0.0,0.0
9.123448138297872,0.0,0.0,0.0
9.13144414893617,0.0,0.0,0.0
9.139440159574468,0.0,0.0,0.0
9.147436170212766,0.0,0.0,0.0
9.155432180851063,0.0,0.0,0.0
9.163428191489363,0.0,0.0,0.0
9.17142420212766,0.0,0.0,0.0
9.179420212765958,0.0,0.0,0.0
9.187416223404256,0.0,0.0,0.0
9.195412234042553,0.0,0.0,0.0
9.203408244680851,0.0,0.0,0.0
9.211404255319149,0.0,0.0,0.0
9.219400265957447,0.0,0.0,0.0
9.227396276595744,0.0,0.0,0.0
9.235392287234042,0.0,0.0,0.0
9.243388297872341,0.0,0.0,0.0
9.251384308510639,0.0,0.0,0.0
9.259380319148937,0.0,0.0,0.0
9.267376329787234,0.0,0.0,0.0
9.275372340425532,0.0,0.0,0.0
9.28336835106383,0.0,0.0,0.0
9.291364361702128,0.0,0.0,0.0
9.299360372340425,0.0,0.0,0.0
9.307356382978723,0.0,0.0,0.0
9.31535239361702,0.0,0.0,0.0
9.32334840425532,0.0,0.0,0.0
9.331344414893618,0.0,0.0,0.0
9.339340425531915,0.0,0.0,0.0
9.347336436170213,0.0,0.0,0.0
9.35533244680851,0.0,0.0,0.0
9.363328457446809,0.0,0.0,0.0
9.371324468085106,0.0,0.0,0.0
9.379320478723404,0.0,0.0,0.0
9.387316489361702,0.0,0.0,0.0
9.3953125,0.0,0.0,0.0
9.403308510638299,0.016356382978742038,0.0,0.0
9.411304521276596,0.09855053191489299,0.0,0.0
9.419300531914894,0.08966607565011778,0.0,0.0
9.427296542553192,0.08078161938534255,0.0,0.0
9.43529255319149,0.07189716312056732,0.0,0.0
9.443288563829787,0.06301270685579209,0.0,0.0
9.451284574468085,0.05412825059101687,0.0,0.0
9.459280585106383,0.04524379432624164,0.0,0.0
9.46727659574468,0.03635933806146642,0.0,0.0
9.47527260638298,0.02747488179668922,0.0,0.0
9.483268617021277,0.018590425531913993,0.0,0.0
9.491264627659575,0.009705969267138764,0.0,0.0
9.499260638297873,0.0008215130023635359,0.0,0.0
9.50725664893617,0.0,0.0,0.0
9.515252659574468,0.0,0.0,0.0
9.523248670212766,0.0,0.0,0.0
9.531244680851064,0.0,0.0,0.0
9.539240691489361,0.0,0.0,0.0
9.547236702127659,0.0,0.0,0.0
9.555232712765958,0.0,0.0,0.0
9.563228723404256,0.0,0.0,0.0
9.571224734042554,0.0,0.0,0.0
9.579220744680851,0.0,0.0,0.0
9.58721675531915,0.0,0.0,0.0
9.595212765957447,0.0,0.0,0.0
9.603208776595745,0.0,0.0,0.0
9.611204787234042,0.0,0.0,0.0
9.61920079787234,0.0,0.0,0.0
9.627196808510638,0.0,0.0,0.0
9.635192819148937,0.0,0.0,0.0
9.643188829787235,0.0,0.0,0.0
9.651184840425532,0.0,0.0,0.0
9.65918085106383,0.0,0.0,0.0
9.667176861702128,0.0,0.0,0.0
9.675172872340426,0.0,0.0,0.0
9.683168882978723,0.0,0.0,0.0
9.691164893617021,0.0,0.0,0.0
9.699160904255319,0.0,0.0,0.0
9.707156914893616,0.0,0.0,0.0
9.715152925531916,0.0,0.0,0.0
9.723148936170213,0.0,0.0,0.0
9.731144946808511,0.0,0.0,0.0
9.739140957446809,0.0,0.0,0.0
9.747136968085107,0.0,0.0,0.0
9.755132978723404,0.0,0.0,0.0
9.763128989361702,0.0,0.0,0.0
9.771125,0.0,0.0,0.0
9.779121010638297,0.0,0.0,0.0
9.787117021276597,0.0,0.0,0.0
9.795113031914894,0.0,0.0,0.0
9.803109042553192,0.0,0.0,0.0
9.81110505319149,0.0,0.0,0.0
9.819101063829788,0.0,0.0,0.0
9.827097074468085,0.0,0.0,0.0
9.835093085106383,0.0,0.0,0.0
9.84308909574468,0.0,0.0,0.0
9.851085106382978,0.0,0.0,0.0
9.859081117021276,0.0,0.0,0.0
9.867077127659575,0.0,0.0,0.0
9.875073138297873,0.0,0.0,0.0
9.88306914893617,0.0,0.0,0.0
9.891065159574469,0.0,0.0,0.0
9.899061170212766,0.0,0.0,0.0
9.907057180851064,0.0,0.0,0.0
9.915053191489362,0.0,0.0,0.0
9.92304920212766,0.0,0.0,0.0
9.931045212765957,0.0,0.0,0.0
9.939041223404255,0.0,0.0,0.0
9.947037234042554,0.0,0.0,0.0
9.955033244680852,0.0,0.0,0.0
9.96302925531915,0.0,0.0,0.0
9.971025265957447,0.0,0.0,0.0
9.979021276595745,0.0,0.0,0.0
9.987017287234043,0.0,0.0,0.0
9.99501329787234,0.0,0.0,0.0
10.003009308510638,0.0,0.0,0.0
10.011005319148936,0.0,0.0,0.0
10.019001329787233,0.0,0.0,0.0
10.026997340425533,0.0,0.0,0.0
10.03499335106383,0.0,0.0,0.0
10.042989361702128,0.0,0.0,0.0
10.050985372340426,0.0,0.0,0.0
10.058981382978724,0.0,0.0,0.0
10.066977393617021,0.0,0.0,0.0
10.074973404255319,0.0,0.0,0.0
10.082969414893617,0.0,0.0,0.0
10.090965425531914,0.0,0.0,0.0
10.098961436170214,0.0,0.0,0.0
10.106957446808511,0.0,0.0,0.0
10.11495345744681,0.0,0.0,0.0
10.122949468085107,0.0,0.0,0.0
10.130945478723405,0.0,0.0,0.0
10.138941489361702,0.0,0.0,0.0
10.1469375,0.0,0.0,0.0
10.154933510638298,0.0,0.0,0.0
10.162929521276595,0.0,0.0,0.0
10.170925531914893,0.0,0.0,0.0
10.178921542553192,0.0,0.0,0.0
10.18691755319149,0.0,0.0,0.0
10.194913563829788,0.0,0.0,0.0
10.202909574468086,0.0,0.0,0.0
10.210905585106383,-0.005368713733075638,0.0,0.0
10.218901595744681,-0.012637814313346303,0.0,0.0
10.226897606382979,-0.01990691489361697,0.0,0.0
10.234893617021276,-0.027176015473887635,0.0,0.0
10.242889627659574,-0.0344451160541583,0.0,0.0
10.250885638297872,-0.041714216634428966,0.0,0.0
10.258881648936171,-0.04898331721470125,0.0,0.0
10.266877659574469,-0.056252417794971914,0.0,0.0
10.274873670212767,-0.06352151837524257,0.0,0.0
10.282869680851064,-0.07079061895551324,0.0,0.0
10.290865691489362,-0.0780597195357839,0.0,0.0
10.29886170212766,-0.08532882011605457,0.0,0.0
10.306857712765957,-0.09259792069632523,0.0,0.0
10.314853723404255,-0.0998670212765959,0.0,0.0
10.322849734042553,-0.2,-0.1,-0.015831855791958734
10.33084574468085,-0.2,-0.1,-0.0602541371158375
10.33884175531915,-0.20267223910841475,-0.10267223910841475,-0.1040083586626221
10.346837765957448,-0.2280563998649151,-0.1280563998649151,-0.14208459979737265
10.354833776595745,-0.25344056062141546,-0.15344056062141545,-0.1801608409321232
10.362829787234043,-0.2788247213779158,-0.1788247213779158,-0.21823708206687376
10.37082579787234,-0.30420888213441616,-0.20420888213441615,-0.25631332320162425
10.378821808510638,-0.3295930428909165,-0.2295930428909165,-0.29438956433637486
10.386817819148936,-0.3549772036474169,-0.25497720364741683,-0.33246580547112536
10.394813829787234,-0.3803613644039172,-0.28036136440391723,-0.37054204660587586
10.402809840425531,-0.7404920212765922,-0.3,-0.5
10.41080585106383,-0.4644539730785831,-0.3822269865392916,-0.49407566217976384
10.418801861702129,-0.41549880590533234,-0.35774940295266616,-0.4859164676508887
10.426797872340426,-0.3665436387320815,-0.3332718193660408,-0.4777572731220136
10.434793882978724,-0.31758847155883074,-0.3087942357794154,-0.46959807859313846
10.442789893617022,-0.26863330438558,-0.28431665219279,-0.4614388840642633
10.45078590425532,-0.2196781372123292,-0.25983906860616457,-0.4532796895353882
10.458781914893617,-0.17072297003907838,-0.2353614850195392,-0.4451204950065131
10.466777925531915,-0.12176780286582761,-0.2108839014329138,-0.4369613004776379
10.474773936170212,-0.07281263569257684,-0.18640631784628842,-0.4288021059487628
10.48276994680851,-0.02385746851932602,-0.161928734259663,-0.4206429114198877
10.49076595744681,0.02509769865393563,-0.13745115067303215,-0.4124837168910107
10.498761968085107,0.0740528658271864,-0.11297356708640677,-0.4043245223621356
10.506757978723405,0.17515957446811048,-0.1,-0.4
10.514753989361703,-0.20316550501345074,-0.10633101002690146,-0.4094965150403522
10.52275,-0.2123563218390803,-0.12471264367816057,-0.43706896551724084
10.530746010638298,-0.22154713866470985,-0.14309427732941968,-0.46464141599412956
10.538742021276596,-0.2307379554903394,-0.1614759109806788,-0.49221386647101817
10.546738031914893,-0.23992877231596896,-0.1798575446319379,-0.5197863169479069
10.554734042553191,-0.2491195891415985,-0.198239178283197,-0.5473587674247955
10.562730053191489,-0.25831040596722804,-0.21662081193445612,-0.5749312179016842
10.570726063829788,-0.26750122279285965,-0.2350024455857193,-0.6025036683785789
10.578722074468086,-0.2766920396184892,-0.2533840792369784,-0.6300761188554677
10.586718085106384,-0.28588285644411876,-0.27176571288823753,-0.6576485693323564
10.594714095744681,-0.2950736732697483,-0.29014734653949664,-0.685221019809245
10.602710106382979,-0.3,-0.5342021276595684,-0.968404255319137
10.610706117021277,-0.29370670460168347,-0.6979022348672278,-1.2020977651327722
10.618702127659574,-0.2751113310242469,-0.6917037770080823,-1.2082962229919176
10.626698138297872,-0.2565159574468103,-0.6855053191489368,-1.2144946808510633
10.63469414893617,-0.23792058386937381,-0.6793068612897912,-1.2206931387102087
10.642690159574467,-0.21932521029193724,-0.6731084034306457,-1.2268915965693543
10.650686170212767,-0.20072983671449657,-0.6669099455714989,-1.233090054428501
10.658682180851065,-0.18213446313706003,-0.6607114877123533,-1.2392885122876467
10.666678191489362,-0.16353908955962349,-0.6545130298532078,-1.245486970146792
10.67467420212766,-0.14494371598218692,-0.6483145719940623,-1.2516854280059377
10.682670212765958,-0.12634834240475037,-0.6421161141349168,-1.2578838858650832
10.690666223404255,-0.10775296882731383,-0.6359176562757712,-1.2640823437242288
10.698662234042553,-0.08915759524987726,-0.6297191984166257,-1.2702808015833742
10.70665824468085,-0.07056222167244072,-0.6235207405574802,-1.2764792594425198
10.714654255319148,-0.05196684809500418,-0.6173222826983347,-1.2826777173016652
10.722650265957448,-0.033371474517563504,-0.6111238248391878,-1.2888761751608122
10.730646276595746,-0.014776100940126935,-0.6049253669800423,-1.2950746330199578
10.738642287234043,0.20642287234043707,-0.8192686170213113,-1.425691489361748
10.746638297872341,0.28638297872341567,-1.059148936170247,-1.7455319148936628
10.754634308510639,0.8506877493351099,-1.1217233211436186,-2.143446642287237
10.762630319148936,0.9381441156914908,-1.159204621010639,-2.218409242021278
10.770626329787234,1.0256004820478717,-1.1966859208776592,-2.293371841755319
10.778622340425532,1.1130568484042527,-1.2341672207446797,-2.3683344414893597
10.78661835106383,1.2005132147606334,-1.2716485206117,-2.4432970412234
10.794614361702127,1.2879695811170144,-1.3091298204787205,-2.518259640957441
10.802610372340427,1.3754259474734147,-1.3466111203457491,-2.5932222406914986
10.810606382978724,1.4628823138297955,-1.3840924202127693,-2.668184840425539
10.818602393617022,1.7761436170212686,-1.5840957446808457,-2.9761436170212683
10.82659840425532,2.0,-1.9,-3.4152045250224754
10.834594414893617,2.0,-1.9,-3.448990485465987
10.842590425531915,2.0,-1.9,-3.4827764459094985
10.850586436170213,2.0,-1.9,-3.5165624063530103
10.85858244680851,2.0,-1.9,-3.5503483667965217
10.866578457446808,2.0,-1.9,-3.584134327240033
10.874574468085106,2.0,-1.9,-3.617920287683545
10.882570478723405,2.0,-1.9,-3.6517062481270637
10.890566489361703,2.0,-1.9,-3.685492208570575
10.8985625,3.1343750000001833,-1.878125000000061,-3.7
10.906558510638298,3.3189765563435976,-1.9209958628841641,-3.679004137115836
10.914554521276596,3.4448396867612456,-1.943207003546102,-3.656792996453898
10.922550531914894,3.5707028171788937,-1.96541814420804,-3.6345818557919602
10.930546542553191,3.6965659475965422,-1.987629284869978,-3.612370715130022
10.938542553191489,3.8224290780141903,-2.009840425531916,-3.590159574468084
10.946538563829787,3.9482922084318384,-2.0320515661938536,-3.5679484338061465
10.954534574468084,4.074155338849486,-2.0542627068557917,-3.5457372931442084
10.962530585106384,4.200018469267163,-2.0764738475177347,-3.5235261524822654
10.970526595744682,4.325881599684811,-2.0986849881796728,-3.5013150118203273
10.97852260638298,4.451744730102459,-2.1208961288416104,-3.4791038711583897
10.986518617021277,4.577607860520107,-2.1431072695035485,-3.4568927304964516
10.994514627659575,4.703470990937756,-2.1653184101654865,-3.4346815898345135
11.002510638297872,4.829334121355404,-2.187529550827424,-3.412470449172576
11.01050664893617,3.0973404255317876,-2.450664893617053,-2.798670212765894
11.018502659574468,3.8345273959706225,-2.5942454340048964,-2.371227170024481
11.026498670212765,3.8769840896253007,-2.5871693183957833,-2.3358465919789158
11.034494680851065,3.9194407832799887,-2.5800932027866685,-2.3004660139333426
11.042490691489363,3.961897476934667,-2.5730170871775555,-2.2650854358877774
11.05048670212766,4.004354170589345,-2.5659409715684425,-2.2297048578422123
11.058482712765958,4.046810864244023,-2.5588648559593294,-2.194324279796647
11.066478723404256,4.089267557898701,-2.5517887403502164,-2.158943701751082
11.074474734042553,4.131724251553379,-2.5447126247411034,-2.123563123705517
11.082470744680851,4.174180945208057,-2.5376365091319903,-2.0881825456599516
11.090466755319149,4.216637638862736,-2.5305603935228773,-2.052801967614387
11.098462765957446,4.259094332517414,-2.5234842779137643,-2.0174213895688218
11.106458776595744,4.301551026172092,-2.5164081623046513,-1.9820408115232564
11.114454787234044,4.34400771982678,-2.509332046695537,-1.9466602334776835
11.122450797872341,4.386464413481458,-2.502255931086424,-1.9112796554321183
11.130446808510639,3.9914893617020706,-2.391063829787219,-1.818297872340414
11.138442819148937,3.391788563829731,-2.2311436170212615,-1.6983577127659462
11.146438829787234,1.7489361702125827,-1.8841755319148592,-1.3841755319148592
11.154434840425532,0.650556655121236,-1.5684020905492275,-1.0936804181098456
11.16243085106383,0.7249381494309817,-1.5219136566056366,-1.0843827313211274
11.170426861702127,0.7993196437407273,-1.4754252226620455,-1.0750850445324092
11.178422872340425,0.873701138050473,-1.4289367887184543,-1.065787357743691
11.186418882978723,0.9480826323602187,-1.3824483547748634,-1.0564896709549727
11.194414893617022,1.022464126669981,-1.335959920831262,-1.0471919841662525
11.20241090425532,1.0968456209797266,-1.2894714868876709,-1.0378942973775342
11.210406914893618,1.1712271152894722,-1.24298305294408,-1.028596610588816
11.218402925531915,1.245608609599218,-1.1964946190004888,-1.0192989238000978
11.226398936170213,1.3199901039089637,-1.1500061850568977,-1.0100012370113796
11.23439494680851,1.3943715982187093,-1.1035177511133067,-1.0007035502226613
11.242390957446808,0.4,-0.4956532579787227,-0.7
11.250386968085106,0.4,-0.47066572473404245,-0.7
11.258382978723404,0.4,-0.4456781914893622,-0.7
11.266378989361701,0.4,-0.42069065824468194,-0.7
11.274375000000001,0.4,-0.39570312499999616,-0.7
11.282371010638299,0.4,-0.3707155917553159,-0.7
11.290367021276596,0.4,-0.3457280585106356,-0.7
11.298363031914894,0.4,-0.32074052526595537,-0.7
11.306359042553192,0.06409574468075965,-0.08204787234037983,-0.6
11.31435505319149,0.10595005910165568,0.005950059101655677,-0.5
11.322351063829787,0.11483451536643091,0.014834515366430902,-0.5
11.330347074468085,0.12371897163120613,0.023718971631206127,-0.5
11.338343085106382,0.13260342789598137,0.032603427895981356,-0.5
11.346339095744682,0.14148788416075855,0.041487884160758555,-0.5
11.35433510638298,0.1503723404255338,0.05037234042553378,-0.5
11.362331117021277,0.159256796690309,0.059256796690309005,-0.5
11.370327127659575,0.16814125295508425,0.06814125295508423,-0.5
11.378323138297873,0.17702570921985947,0.07702570921985946,-0.5
11.38631914893617,0.18591016548463468,0.08591016548463469,-0.5
11.394315159574468,0.19479462174940992,0.0947946217494099,-0.5
11.402311170212766,-0.0002637035701410996,0.0,-0.3997362964298589
11.410307180851063,-0.007039983772088277,0.0,-0.39296001622791177
11.418303191489361,-0.013816263974035453,0.0,-0.38618373602596456
11.42629920212766,-0.020592544175984138,0.0,-0.37940745582401586
11.434295212765958,-0.027368824377931315,0.0,-0.3726311756220687
11.442291223404256,-0.03414510457987849,0.0,-0.3658548954201215
11.450287234042554,-0.040921384781825665,0.0,-0.35907861521817436
11.458283244680851,-0.04769766498377284,0.0,-0.35230233501622715
11.466279255319149,-0.054473945185720025,0.0,-0.34552605481428
11.474275265957447,-0.0612502253876672,0.0,-0.3387497746123328
11.482271276595744,-0.06802650558961437,0.0,-0.3319734944103856
11.490267287234042,-0.07480278579156155,0.0,-0.32519721420843845
11.49826329787234,-0.08157906599350873,0.0,-0.3184209340064913
11.50625930851064,-0.08835534619545742,0.0,-0.3116446538045426
11.514255319148937,-0.09513162639740459,0.0,-0.3048683736025954
11.522251329787235,-0.08592918882978078,0.0,-0.28592918882978074
11.530247340425532,-0.03595412234042025,0.0,-0.23595412234042024
11.53824335106383,0.03783244680850439,-0.06216755319149562,-0.2
11.546239361702128,-0.022982100641676037,-0.1,-0.18850894967916199
11.554235372340425,-0.048366261398176395,-0.1,-0.1758168693009118
11.562231382978723,-0.07375042215467675,-0.1,-0.16312478892266163
11.57022739361702,-0.0991345829111771,-0.1,-0.15043270854441146
11.578223404255318,-0.12451874366767747,-0.1,-0.13774062816616128
11.586219414893618,-0.14990290442418347,-0.1,-0.12504854778790828
11.594215425531916,-0.17528706518068382,-0.1,-0.1123564674096581
11.602211436170213,-0.18942819148934786,-0.1,-0.10528590425532608
11.610207446808511,-0.00023573500967225997,-0.10023573500967227,-0.10023573500967227
11.618203457446809,-0.009322110735010446,-0.10932211073501046,-0.10932211073501046
11.626199468085106,-0.018408486460348632,-0.11840848646034864,-0.11840848646034864
11.634195478723404,-0.02749486218568682,-0.1274948621856868,-0.1274948621856868
11.642191489361702,-0.036581237911025,-0.136581237911025,-0.136581237911025
11.6501875,-0.04566761363636319,-0.14566761363636319,-0.14566761363636319
11.658183510638299,-0.05475398936170339,-0.1547539893617034,-0.1547539893617034
11.666179521276597,-0.06384036508704158,-0.16384036508704158,-0.16384036508704158
11.674175531914894,-0.07292674081237976,-0.17292674081237977,-0.17292674081237977
11.682171542553192,-0.08201311653771795,-0.18201311653771796,-0.18201311653771796
11.69016755319149,-0.09109949226305614,-0.19109949226305614,-0.19109949226305614
11.698163563829787,-0.08500664893619274,-0.19863696808510845,-0.2
11.706159574468085,0.6479609929077346,-0.13200354609929688,-0.2
11.714155585106383,0.0040785356695890755,0.2,0.0013595118898630254
11.72215159574468,0.03229974968711005,0.2,0.010766583229036685
11.730147606382978,0.060520963704631024,0.2,0.020173654568210346
11.738143617021278,0.08874217772215827,0.2,0.029580725907386096
11.746139627659575,0.11696339173967925,0.2,0.038987797246559756
11.754135638297873,0.1451846057572002,0.2,0.048394868585733414
11.76213164893617,0.1734058197747212,0.2,0.05780193992490707
11.770127659574468,0.20162703379224217,0.2,0.06720901126408073
11.778123670212766,0.22984824780976315,0.2,0.07661608260325439
11.786119680851064,0.25806946182728413,0.2,0.08602315394242806
11.794115691489361,0.2862906758448051,0.2,0.09543022528160171
11.80211170212766,-0.11117021276594044,0.18882978723405958,-0.2
11.810107712765957,0.10464337524177923,-0.004643375241779222,-0.3
11.818103723404256,0.11191247582205151,-0.011912475822051502,-0.3
11.826099734042554,0.11918157640232217,-0.019181576402322167,-0.3
11.834095744680852,0.12645067698259282,-0.026450676982592833,-0.3
11.84209175531915,0.13371977756286352,-0.0337197775628635,-0.3
11.850087765957447,0.14098887814313416,-0.040988878143134164,-0.3
11.858083776595745,0.14825797872340485,-0.04825797872340483,-0.3
11.866079787234042,0.1555270793036755,-0.055527079303675494,-0.3
11.87407579787234,0.16279617988394618,-0.06279617988394616,-0.3
11.882071808510638,0.17006528046421682,-0.07006528046421683,-0.3
11.890067819148936,0.1773343810444875,-0.07733438104448749,-0.3
11.898063829787235,0.18460348162475976,-0.08460348162475977,-0.3
11.906059840425533,0.19187258220503045,-0.09187258220503043,-0.3
11.91405585106383,0.1991416827853011,-0.0991416827853011,-0.3
11.922051861702128,-0.06444481382983364,-0.14407413563830562,-0.2559258643616944
11.930047872340426,-0.3642952127659968,-0.19404920212766613,-0.2059507978723339
11.938043882978723,-0.38912898936170376,0.0963763297872346,0.29275265957446917
11.946039893617021,-0.36057180851064047,0.08685726950354683,0.27371453900709364
11.954035904255319,-0.3320146276595772,0.07733820921985905,0.2546764184397181
11.962031914893617,-0.30345744680851383,0.06781914893617128,0.23563829787234256
11.970027925531916,-0.2749002659574442,0.0583000886524814,0.21660017730496278
11.978023936170214,-0.2463430851063809,0.04878102836879363,0.19756205673758725
11.986019946808511,-0.21778590425531758,0.03926196808510586,0.17852393617021173
11.994015957446809,-0.18922872340425428,0.029742907801418098,0.1594858156028362
12.002011968085107,-0.16067154255319097,0.02022384751773032,0.14044769503546065
12.010007978723404,-0.13211436170212765,0.010704787234042556,0.12140957446808512
12.018003989361702,-0.10355718085106436,0.001185726950354793,0.10237145390070959
12.026,1.0,0.1,0.10000000000000003
